Raman Shift ; Dark Subtracted #1
-2.0000;3793.8230
-1.0000;3577.0010
0.0000;3246.7850
1.0000;2805.4190
2.0000;2269.3020
3.0000;1695.3600
4.0000;1187.6850
5.0000;753.7812
6.0000;450.9464
7.0000;324.6340
8.0000;234.5023
9.0000;186.5501
10.0000;209.6539
11.0000;201.9553
12.0000;125.9133
13.0000;50.9164
14.0000;-0.9605
15.0000;-12.6370
16.0000;4.7150
17.0000;18.9315
18.0000;14.3952
19.0000;8.5063
20.0000;5.0604
21.0000;6.4897
22.0000;11.0674
23.0000;16.3636
24.0000;21.5012
25.0000;25.1714
26.0000;26.1751
27.0000;22.9713
28.0000;16.8886
29.0000;11.4249
30.0000;9.0711
31.0000;9.1035
32.0000;10.2058
33.0000;10.8398
34.0000;12.2901
35.0000;14.2828
36.0000;17.3018
37.0000;20.0019
38.0000;21.3923
39.0000;20.6180
40.0000;17.6914
41.0000;14.1949
42.0000;11.7815
43.0000;9.9349
44.0000;8.0018
45.0000;3.6684
46.0000;-0.3037
47.0000;-1.5415
48.0000;3.0025
49.0000;11.4431
50.0000;18.4078
51.0000;18.3202
52.0000;12.6847
53.0000;6.5716
54.0000;5.1612
55.0000;7.2599
56.0000;10.4101
57.0000;11.1856
58.0000;11.1423
59.0000;12.8648
60.0000;18.2382
61.0000;26.8848
62.0000;37.7741
63.0000;51.8641
64.0000;65.7536
65.0000;77.5639
66.0000;85.6430
67.0000;88.4702
68.0000;92.3453
69.0000;104.0768
70.0000;122.1455
71.0000;145.9593
72.0000;178.0156
73.0000;213.7407
74.0000;248.5584
75.0000;283.8815
76.0000;310.3713
77.0000;332.6035
78.0000;362.3892
79.0000;392.2939
80.0000;419.3263
81.0000;447.8065
82.0000;471.8683
83.0000;496.4175
84.0000;532.3912
85.0000;574.4039
86.0000;616.7888
87.0000;662.0270
88.0000;702.1561
89.0000;740.4310
90.0000;788.0978
91.0000;837.8357
92.0000;884.8354
93.0000;936.6337
94.0000;984.1620
95.0000;1029.4810
96.0000;1086.9530
97.0000;1148.7760
98.0000;1204.1320
99.0000;1258.9590
100.0000;1303.5770
101.0000;1335.8080
102.0000;1375.0350
103.0000;1414.4380
104.0000;1450.9700
105.0000;1493.8850
106.0000;1537.9190
107.0000;1580.1940
108.0000;1633.2330
109.0000;1687.0750
110.0000;1736.1470
111.0000;1788.6670
112.0000;1837.6070
113.0000;1875.9220
114.0000;1917.4660
115.0000;1955.4230
116.0000;1989.3650
117.0000;2033.7560
118.0000;2084.8900
119.0000;2131.2000
120.0000;2172.2790
121.0000;2201.1600
122.0000;2219.5580
123.0000;2241.6660
124.0000;2264.7830
125.0000;2287.9680
126.0000;2321.4660
127.0000;2363.2310
128.0000;2402.3140
129.0000;2433.4250
130.0000;2450.4120
131.0000;2459.5000
132.0000;2477.9430
133.0000;2504.9990
134.0000;2531.0250
135.0000;2553.6350
136.0000;2568.9690
137.0000;2577.9960
138.0000;2587.7340
139.0000;2596.9180
140.0000;2605.4140
141.0000;2620.2160
142.0000;2641.1440
143.0000;2661.3590
144.0000;2682.0480
145.0000;2698.3400
146.0000;2707.6270
147.0000;2711.1140
148.0000;2705.9350
149.0000;2698.7590
150.0000;2701.7760
151.0000;2716.7000
152.0000;2733.7920
153.0000;2746.7570
154.0000;2752.7550
155.0000;2753.8990
156.0000;2755.3420
157.0000;2756.0460
158.0000;2754.9480
159.0000;2753.0890
160.0000;2750.3640
161.0000;2748.7880
162.0000;2749.8500
163.0000;2754.1240
164.0000;2761.7990
165.0000;2772.8140
166.0000;2786.7190
167.0000;2799.1780
168.0000;2808.7820
169.0000;2812.5080
170.0000;2813.3580
171.0000;2815.8580
172.0000;2819.2510
173.0000;2824.3870
174.0000;2835.5690
175.0000;2851.0080
176.0000;2864.6410
177.0000;2873.9200
178.0000;2875.7670
179.0000;2873.9600
180.0000;2874.9120
181.0000;2876.8120
182.0000;2877.7570
183.0000;2876.4860
184.0000;2873.4730
185.0000;2872.4320
186.0000;2877.4800
187.0000;2887.4650
188.0000;2898.2490
189.0000;2904.0620
190.0000;2905.2430
191.0000;2907.7700
192.0000;2921.8260
193.0000;2940.5770
194.0000;2953.9230
195.0000;2951.4010
196.0000;2933.9060
197.0000;2914.8630
198.0000;2906.7690
199.0000;2908.5850
200.0000;2916.7080
201.0000;2927.1070
202.0000;2940.6880
203.0000;2952.7130
204.0000;2959.2930
205.0000;2960.0870
206.0000;2959.5450
207.0000;2962.4510
208.0000;2966.7650
209.0000;2973.3210
210.0000;2986.8950
211.0000;3000.4030
212.0000;3007.9440
213.0000;3000.5900
214.0000;2985.1880
215.0000;2974.8000
216.0000;2984.1440
217.0000;3004.5270
218.0000;3023.6500
219.0000;3033.4240
220.0000;3035.8230
221.0000;3036.0860
222.0000;3037.8020
223.0000;3039.1790
224.0000;3043.9450
225.0000;3056.6820
226.0000;3070.2950
227.0000;3079.7740
228.0000;3078.2780
229.0000;3072.6120
230.0000;3074.7170
231.0000;3093.8370
232.0000;3116.5500
233.0000;3128.7550
234.0000;3119.9900
235.0000;3102.4770
236.0000;3093.2140
237.0000;3100.7100
238.0000;3115.9000
239.0000;3130.0300
240.0000;3138.8930
241.0000;3144.4870
242.0000;3148.9460
243.0000;3151.9470
244.0000;3153.9270
245.0000;3159.1680
246.0000;3168.3340
247.0000;3177.8950
248.0000;3187.0610
249.0000;3194.1780
250.0000;3197.3040
251.0000;3196.4690
252.0000;3190.3580
253.0000;3183.9040
254.0000;3183.9600
255.0000;3191.4990
256.0000;3201.3050
257.0000;3207.6750
258.0000;3210.0330
259.0000;3212.6400
260.0000;3221.3450
261.0000;3233.4300
262.0000;3244.4470
263.0000;3250.5730
264.0000;3250.2510
265.0000;3247.8960
266.0000;3249.8770
267.0000;3253.7720
268.0000;3257.1760
269.0000;3258.7610
270.0000;3258.2840
271.0000;3257.1150
272.0000;3255.7510
273.0000;3254.9680
274.0000;3256.7710
275.0000;3263.8360
276.0000;3273.7160
277.0000;3282.4000
278.0000;3285.6950
279.0000;3285.7030
280.0000;3287.7800
281.0000;3296.5590
282.0000;3308.3860
283.0000;3321.4900
284.0000;3334.6210
285.0000;3346.4150
286.0000;3359.0160
287.0000;3374.7620
288.0000;3387.1990
289.0000;3395.7680
290.0000;3399.2630
291.0000;3397.2210
292.0000;3395.4060
293.0000;3395.3770
294.0000;3396.6260
295.0000;3401.7900
296.0000;3412.0400
297.0000;3421.4880
298.0000;3423.7740
299.0000;3415.8740
300.0000;3407.4080
301.0000;3410.2460
302.0000;3426.2740
303.0000;3445.4010
304.0000;3459.2140
305.0000;3464.8420
306.0000;3465.2340
307.0000;3465.2760
308.0000;3463.1230
309.0000;3460.2920
310.0000;3459.4510
311.0000;3460.5560
312.0000;3463.4050
313.0000;3467.5860
314.0000;3473.3340
315.0000;3479.9710
316.0000;3487.7880
317.0000;3495.3820
318.0000;3502.7690
319.0000;3513.9310
320.0000;3522.1660
321.0000;3524.5370
322.0000;3515.6610
323.0000;3501.9610
324.0000;3496.0540
325.0000;3510.0100
326.0000;3532.6400
327.0000;3550.2420
328.0000;3551.7660
329.0000;3546.6420
330.0000;3547.3420
331.0000;3559.8580
332.0000;3578.0220
333.0000;3597.8420
334.0000;3617.7700
335.0000;3633.3650
336.0000;3643.8500
337.0000;3645.2960
338.0000;3642.1260
339.0000;3644.1710
340.0000;3652.2940
341.0000;3661.1100
342.0000;3668.5320
343.0000;3673.3230
344.0000;3677.1380
345.0000;3683.8430
346.0000;3691.7050
347.0000;3698.4380
348.0000;3704.7030
349.0000;3708.5430
350.0000;3710.4060
351.0000;3713.2960
352.0000;3714.4840
353.0000;3713.3410
354.0000;3709.1010
355.0000;3702.9510
356.0000;3698.9350
357.0000;3699.7490
358.0000;3704.2750
359.0000;3709.4880
360.0000;3713.1840
361.0000;3716.1460
362.0000;3719.3150
363.0000;3722.7030
364.0000;3725.6720
365.0000;3729.2230
366.0000;3733.2760
367.0000;3736.7730
368.0000;3739.6760
369.0000;3741.5300
370.0000;3742.6020
371.0000;3744.1470
372.0000;3746.0900
373.0000;3748.7080
374.0000;3752.9180
375.0000;3758.2130
376.0000;3765.2330
377.0000;3775.0420
378.0000;3786.3040
379.0000;3796.3690
380.0000;3804.7770
381.0000;3809.6830
382.0000;3815.1310
383.0000;3827.6120
384.0000;3841.2420
385.0000;3853.6000
386.0000;3863.8480
387.0000;3868.8540
388.0000;3872.3210
389.0000;3876.7380
390.0000;3879.5360
391.0000;3883.0260
392.0000;3889.2990
393.0000;3894.5570
394.0000;3897.1220
395.0000;3894.4720
396.0000;3892.6100
397.0000;3899.8230
398.0000;3919.2010
399.0000;3940.9650
400.0000;3957.0690
401.0000;3964.3090
402.0000;3964.9160
403.0000;3965.3180
404.0000;3963.3510
405.0000;3959.9730
406.0000;3956.7750
407.0000;3954.8670
408.0000;3956.8360
409.0000;3965.9830
410.0000;3979.7310
411.0000;3993.2780
412.0000;4002.9600
413.0000;4007.2900
414.0000;4008.2010
415.0000;4007.7120
416.0000;4004.5210
417.0000;4002.5620
418.0000;4004.0010
419.0000;4007.6630
420.0000;4012.1150
421.0000;4015.8180
422.0000;4022.0760
423.0000;4035.6120
424.0000;4056.4630
425.0000;4074.9400
426.0000;4081.1800
427.0000;4071.3190
428.0000;4057.5880
429.0000;4054.0420
430.0000;4060.5110
431.0000;4069.1020
432.0000;4073.0770
433.0000;4073.7970
434.0000;4075.3170
435.0000;4082.4410
436.0000;4091.5500
437.0000;4098.5540
438.0000;4100.2180
439.0000;4098.0190
440.0000;4096.9210
441.0000;4100.9500
442.0000;4106.5140
443.0000;4111.2720
444.0000;4113.8750
445.0000;4115.5590
446.0000;4118.7100
447.0000;4123.5550
448.0000;4129.0980
449.0000;4135.7830
450.0000;4142.6460
451.0000;4150.5770
452.0000;4163.2550
453.0000;4177.7310
454.0000;4188.5300
455.0000;4194.4490
456.0000;4192.4050
457.0000;4186.5190
458.0000;4179.0430
459.0000;4172.4970
460.0000;4173.6430
461.0000;4190.4960
462.0000;4214.9380
463.0000;4233.9290
464.0000;4236.5240
465.0000;4232.2410
466.0000;4236.7060
467.0000;4257.0730
468.0000;4279.9050
469.0000;4296.0440
470.0000;4301.4740
471.0000;4299.5790
472.0000;4297.0830
473.0000;4293.6810
474.0000;4294.3170
475.0000;4308.5920
476.0000;4332.6860
477.0000;4353.1220
478.0000;4358.3460
479.0000;4349.6590
480.0000;4339.4000
481.0000;4339.3320
482.0000;4343.9270
483.0000;4350.7580
484.0000;4358.1420
485.0000;4366.0140
486.0000;4373.4610
487.0000;4378.8280
488.0000;4384.2290
489.0000;4395.3330
490.0000;4412.6910
491.0000;4428.0000
492.0000;4434.9100
493.0000;4430.8150
494.0000;4425.9160
495.0000;4434.5060
496.0000;4452.5840
497.0000;4469.1250
498.0000;4475.1280
499.0000;4471.7140
500.0000;4467.6000
501.0000;4474.6920
502.0000;4482.8840
503.0000;4484.8960
504.0000;4474.3240
505.0000;4458.2170
506.0000;4445.6970
507.0000;4441.4910
508.0000;4444.5720
509.0000;4450.9980
510.0000;4460.6330
511.0000;4472.5200
512.0000;4484.4500
513.0000;4494.3710
514.0000;4502.0970
515.0000;4509.4420
516.0000;4513.9300
517.0000;4517.8070
518.0000;4526.0700
519.0000;4533.9670
520.0000;4539.2450
521.0000;4539.8640
522.0000;4537.2940
523.0000;4537.4980
524.0000;4545.1740
525.0000;4553.9620
526.0000;4558.6980
527.0000;4556.2380
528.0000;4553.2500
529.0000;4557.1990
530.0000;4568.9060
531.0000;4585.6670
532.0000;4606.2850
533.0000;4627.9670
534.0000;4649.0650
535.0000;4672.0440
536.0000;4688.7800
537.0000;4697.6000
538.0000;4698.3300
539.0000;4690.9880
540.0000;4689.0450
541.0000;4701.5780
542.0000;4720.8290
543.0000;4738.6640
544.0000;4750.8830
545.0000;4762.2830
546.0000;4782.9790
547.0000;4810.2270
548.0000;4833.6950
549.0000;4848.8400
550.0000;4850.2580
551.0000;4846.8870
552.0000;4851.8930
553.0000;4859.0380
554.0000;4864.4000
555.0000;4864.1800
556.0000;4862.2840
557.0000;4866.3780
558.0000;4881.0000
559.0000;4902.2150
560.0000;4925.7010
561.0000;4949.6310
562.0000;4968.7650
563.0000;4982.1120
564.0000;4985.9100
565.0000;4981.5610
566.0000;4976.7540
567.0000;4969.7160
568.0000;4963.5720
569.0000;4961.8200
570.0000;4964.3020
571.0000;4967.8360
572.0000;4968.5850
573.0000;4969.6900
574.0000;4973.5060
575.0000;4982.3760
576.0000;4991.6080
577.0000;4998.2730
578.0000;4999.8540
579.0000;4997.7090
580.0000;4995.4850
581.0000;4992.8830
582.0000;4989.6100
583.0000;4984.7090
584.0000;4980.2900
585.0000;4980.8140
586.0000;4991.5330
587.0000;5007.4500
588.0000;5019.7470
589.0000;5019.0470
590.0000;5012.6440
591.0000;5012.7710
592.0000;5025.9590
593.0000;5041.7850
594.0000;5054.1580
595.0000;5059.0020
596.0000;5056.7070
597.0000;5049.0900
598.0000;5035.4890
599.0000;5023.1010
600.0000;5017.2550
601.0000;5019.1290
602.0000;5024.6930
603.0000;5029.1090
604.0000;5034.9380
605.0000;5042.0470
606.0000;5049.8330
607.0000;5056.7690
608.0000;5062.3420
609.0000;5065.6690
610.0000;5067.0590
611.0000;5068.5600
612.0000;5070.0570
613.0000;5074.1600
614.0000;5086.6920
615.0000;5103.4280
616.0000;5115.9660
617.0000;5118.7210
618.0000;5113.2710
619.0000;5109.3330
620.0000;5111.6050
621.0000;5118.8030
622.0000;5133.6610
623.0000;5157.1520
624.0000;5177.4780
625.0000;5184.3470
626.0000;5173.5210
627.0000;5162.9210
628.0000;5174.0640
629.0000;5200.9020
630.0000;5225.1820
631.0000;5236.3520
632.0000;5233.9600
633.0000;5226.6590
634.0000;5219.8020
635.0000;5211.4850
636.0000;5206.1700
637.0000;5206.1840
638.0000;5209.6040
639.0000;5213.8680
640.0000;5218.3430
641.0000;5219.7340
642.0000;5212.9460
643.0000;5200.3020
644.0000;5191.1180
645.0000;5194.5560
646.0000;5205.5200
647.0000;5213.0170
648.0000;5208.5380
649.0000;5199.9780
650.0000;5195.4860
651.0000;5197.9270
652.0000;5204.7260
653.0000;5214.4530
654.0000;5225.6730
655.0000;5232.6760
656.0000;5228.9580
657.0000;5216.7440
658.0000;5209.0000
659.0000;5220.9750
660.0000;5240.4610
661.0000;5251.3350
662.0000;5242.9420
663.0000;5226.1270
664.0000;5215.3830
665.0000;5215.8330
666.0000;5221.3920
667.0000;5225.7540
668.0000;5229.2700
669.0000;5233.1350
670.0000;5236.0800
671.0000;5239.1310
672.0000;5246.1590
673.0000;5263.4870
674.0000;5281.6310
675.0000;5292.0520
676.0000;5288.7420
677.0000;5277.9960
678.0000;5271.6320
679.0000;5271.7550
680.0000;5273.4400
681.0000;5272.4350
682.0000;5270.0540
683.0000;5269.3130
684.0000;5273.9090
685.0000;5280.5440
686.0000;5283.6100
687.0000;5279.1450
688.0000;5270.0610
689.0000;5259.9810
690.0000;5250.2170
691.0000;5246.2230
692.0000;5253.4640
693.0000;5272.6270
694.0000;5291.7720
695.0000;5297.4210
696.0000;5292.0980
697.0000;5288.5640
698.0000;5299.7300
699.0000;5315.8760
700.0000;5329.4670
701.0000;5335.5310
702.0000;5336.8500
703.0000;5340.8420
704.0000;5347.1750
705.0000;5350.3010
706.0000;5345.4020
707.0000;5334.5290
708.0000;5328.5690
709.0000;5337.9720
710.0000;5357.3230
711.0000;5375.6480
712.0000;5383.5870
713.0000;5388.9950
714.0000;5404.9490
715.0000;5433.1070
716.0000;5459.4130
717.0000;5476.4270
718.0000;5478.5890
719.0000;5471.7730
720.0000;5464.4310
721.0000;5454.7260
722.0000;5449.0730
723.0000;5453.9170
724.0000;5464.1570
725.0000;5471.0080
726.0000;5469.5650
727.0000;5469.0420
728.0000;5480.4420
729.0000;5502.7080
730.0000;5523.4800
731.0000;5534.4460
732.0000;5533.1260
733.0000;5525.9730
734.0000;5519.7290
735.0000;5512.0530
736.0000;5506.5590
737.0000;5505.4860
738.0000;5507.7470
739.0000;5508.5630
740.0000;5508.2640
741.0000;5513.7220
742.0000;5532.8600
743.0000;5559.9210
744.0000;5581.2000
745.0000;5587.9130
746.0000;5580.1110
747.0000;5569.7550
748.0000;5561.6900
749.0000;5556.1120
750.0000;5557.2510
751.0000;5566.6460
752.0000;5576.3300
753.0000;5575.4230
754.0000;5566.3990
755.0000;5558.8000
756.0000;5561.4320
757.0000;5570.2420
758.0000;5580.2310
759.0000;5587.9670
760.0000;5593.5850
761.0000;5597.3940
762.0000;5597.9800
763.0000;5597.5920
764.0000;5600.0390
765.0000;5604.4470
766.0000;5610.6000
767.0000;5619.6940
768.0000;5628.3830
769.0000;5634.8120
770.0000;5637.4240
771.0000;5635.1440
772.0000;5629.3120
773.0000;5620.0950
774.0000;5613.3930
775.0000;5615.5670
776.0000;5626.9410
777.0000;5641.0000
778.0000;5652.5430
779.0000;5662.4010
780.0000;5674.5950
781.0000;5692.2920
782.0000;5704.6180
783.0000;5705.6500
784.0000;5692.4960
785.0000;5679.7340
786.0000;5684.9460
787.0000;5705.3750
788.0000;5728.6420
789.0000;5749.4620
790.0000;5763.5110
791.0000;5771.2980
792.0000;5769.8720
793.0000;5763.7060
794.0000;5765.1190
795.0000;5774.8190
796.0000;5786.0200
797.0000;5795.2240
798.0000;5801.1920
799.0000;5806.0310
800.0000;5812.5690
801.0000;5817.2420
802.0000;5821.5530
803.0000;5824.8710
804.0000;5827.5470
805.0000;5832.8860
806.0000;5839.2630
807.0000;5843.7420
808.0000;5843.1840
809.0000;5839.2900
810.0000;5838.8200
811.0000;5846.4760
812.0000;5857.7730
813.0000;5868.0130
814.0000;5875.4050
815.0000;5878.6270
816.0000;5877.9600
817.0000;5872.8140
818.0000;5869.0210
819.0000;5870.6240
820.0000;5878.0770
821.0000;5891.6820
822.0000;5911.9480
823.0000;5931.8990
824.0000;5943.1050
825.0000;5941.4700
826.0000;5937.0660
827.0000;5947.0250
828.0000;5962.6470
829.0000;5971.2110
830.0000;5960.5230
831.0000;5940.3820
832.0000;5927.3210
833.0000;5928.1900
834.0000;5937.5010
835.0000;5947.8960
836.0000;5958.6100
837.0000;5968.8500
838.0000;5978.0200
839.0000;5982.7990
840.0000;5984.3290
841.0000;5983.0670
842.0000;5979.5590
843.0000;5979.6670
844.0000;5984.5190
845.0000;5988.0350
846.0000;5980.6450
847.0000;5967.2810
848.0000;5963.8640
849.0000;5986.1060
850.0000;6020.0250
851.0000;6043.0680
852.0000;6042.3970
853.0000;6029.5190
854.0000;6021.6650
855.0000;6019.2210
856.0000;6018.4310
857.0000;6016.4310
858.0000;6016.3190
859.0000;6020.0110
860.0000;6028.0250
861.0000;6039.8700
862.0000;6055.8740
863.0000;6073.8080
864.0000;6085.8090
865.0000;6082.5720
866.0000;6065.8700
867.0000;6055.2750
868.0000;6070.1600
869.0000;6096.8530
870.0000;6116.9730
871.0000;6120.0240
872.0000;6119.9350
873.0000;6135.8630
874.0000;6164.0740
875.0000;6188.0560
876.0000;6196.7940
877.0000;6191.4830
878.0000;6186.5420
879.0000;6191.9970
880.0000;6198.8510
881.0000;6201.3650
882.0000;6198.1680
883.0000;6199.8130
884.0000;6220.1760
885.0000;6251.2890
886.0000;6274.9780
887.0000;6278.0620
888.0000;6266.5110
889.0000;6257.6750
890.0000;6257.1490
891.0000;6259.6000
892.0000;6261.8030
893.0000;6265.0180
894.0000;6271.2000
895.0000;6282.1180
896.0000;6294.9420
897.0000;6307.1040
898.0000;6315.7920
899.0000;6323.7610
900.0000;6337.9940
901.0000;6356.2180
902.0000;6374.1730
903.0000;6392.0670
904.0000;6405.5340
905.0000;6417.7360
906.0000;6430.9620
907.0000;6440.6780
908.0000;6449.8210
909.0000;6456.6450
910.0000;6464.6530
911.0000;6483.2750
912.0000;6505.5900
913.0000;6521.7630
914.0000;6525.4780
915.0000;6522.4820
916.0000;6529.5150
917.0000;6550.0250
918.0000;6568.2030
919.0000;6569.6390
920.0000;6556.5030
921.0000;6545.7230
922.0000;6551.8860
923.0000;6566.9260
924.0000;6581.1590
925.0000;6590.9130
926.0000;6597.9850
927.0000;6603.3340
928.0000;6606.7060
929.0000;6615.8000
930.0000;6645.1680
931.0000;6676.7990
932.0000;6693.3360
933.0000;6682.3280
934.0000;6660.3320
935.0000;6652.0200
936.0000;6657.8310
937.0000;6664.6140
938.0000;6658.9180
939.0000;6650.2330
940.0000;6649.6360
941.0000;6662.4140
942.0000;6682.6750
943.0000;6703.0920
944.0000;6720.3570
945.0000;6731.8280
946.0000;6739.1570
947.0000;6736.7570
948.0000;6727.9370
949.0000;6713.0190
950.0000;6701.1570
951.0000;6706.7050
952.0000;6731.4270
953.0000;6756.6120
954.0000;6762.4630
955.0000;6754.9170
956.0000;6753.0420
957.0000;6769.6740
958.0000;6788.7880
959.0000;6797.6730
960.0000;6791.8970
961.0000;6782.6020
962.0000;6782.7680
963.0000;6788.0830
964.0000;6794.1300
965.0000;6798.0360
966.0000;6800.4970
967.0000;6801.0990
968.0000;6799.5980
969.0000;6800.9580
970.0000;6809.1760
971.0000;6823.5400
972.0000;6844.1460
973.0000;6870.6960
974.0000;6894.8710
975.0000;6911.3760
976.0000;6914.2510
977.0000;6914.4310
978.0000;6928.0200
979.0000;6948.2590
980.0000;6969.3210
981.0000;6987.3780
982.0000;7001.9190
983.0000;7018.0870
984.0000;7033.8290
985.0000;7045.7000
986.0000;7058.7660
987.0000;7066.7380
988.0000;7072.2600
989.0000;7075.6570
990.0000;7078.2960
991.0000;7088.9080
992.0000;7106.4360
993.0000;7122.1350
994.0000;7128.5590
995.0000;7126.2230
996.0000;7125.3770
997.0000;7132.2650
998.0000;7141.1930
999.0000;7149.0300
1000.0000;7154.6140
1001.0000;7159.7710
1002.0000;7170.8960
1003.0000;7180.6750
1004.0000;7180.7540
1005.0000;7164.5590
1006.0000;7146.2170
1007.0000;7147.4670
1008.0000;7169.3590
1009.0000;7190.8090
1010.0000;7188.4750
1011.0000;7173.2020
1012.0000;7163.9230
1013.0000;7171.7280
1014.0000;7186.1840
1015.0000;7197.4470
1016.0000;7204.5030
1017.0000;7215.2050
1018.0000;7240.0220
1019.0000;7267.0340
1020.0000;7284.7370
1021.0000;7285.2250
1022.0000;7277.9910
1023.0000;7279.6960
1024.0000;7288.7450
1025.0000;7299.5000
1026.0000;7309.5090
1027.0000;7317.8920
1028.0000;7325.4780
1029.0000;7331.2090
1030.0000;7335.8970
1031.0000;7344.1710
1032.0000;7353.6910
1033.0000;7362.0940
1034.0000;7368.0700
1035.0000;7372.0960
1036.0000;7380.1770
1037.0000;7393.2220
1038.0000;7404.0580
1039.0000;7409.5440
1040.0000;7407.7380
1041.0000;7403.3950
1042.0000;7398.6280
1043.0000;7396.1700
1044.0000;7401.8490
1045.0000;7416.8930
1046.0000;7432.4130
1047.0000;7438.0190
1048.0000;7437.7060
1049.0000;7445.1560
1050.0000;7469.3200
1051.0000;7493.6520
1052.0000;7503.8940
1053.0000;7497.1320
1054.0000;7489.6610
1055.0000;7500.5030
1056.0000;7519.1620
1057.0000;7535.3060
1058.0000;7542.6310
1059.0000;7547.9570
1060.0000;7560.5750
1061.0000;7578.0310
1062.0000;7599.1160
1063.0000;7628.2030
1064.0000;7653.2140
1065.0000;7668.2560
1066.0000;7667.3900
1067.0000;7663.8780
1068.0000;7679.5010
1069.0000;7705.7900
1070.0000;7730.0460
1071.0000;7745.1410
1072.0000;7750.8270
1073.0000;7754.6730
1074.0000;7755.3630
1075.0000;7756.3790
1076.0000;7765.5210
1077.0000;7778.3050
1078.0000;7790.8260
1079.0000;7800.0710
1080.0000;7807.5220
1081.0000;7816.6920
1082.0000;7827.0420
1083.0000;7843.1370
1084.0000;7876.0720
1085.0000;7908.9640
1086.0000;7928.3560
1087.0000;7925.1850
1088.0000;7914.7470
1089.0000;7922.5790
1090.0000;7940.3410
1091.0000;7953.1760
1092.0000;7950.1310
1093.0000;7940.3280
1094.0000;7936.3800
1095.0000;7940.7410
1096.0000;7951.2000
1097.0000;7969.8940
1098.0000;7989.5070
1099.0000;8001.2550
1100.0000;7999.0310
1101.0000;7988.6440
1102.0000;7981.2010
1103.0000;7977.1160
1104.0000;7976.7420
1105.0000;7983.3500
1106.0000;7990.5240
1107.0000;7985.7340
1108.0000;7965.5660
1109.0000;7948.9840
1110.0000;7956.3060
1111.0000;7980.9810
1112.0000;7996.5890
1113.0000;7986.0430
1114.0000;7969.7940
1115.0000;7975.1180
1116.0000;8000.8960
1117.0000;8018.6770
1118.0000;8000.6520
1119.0000;7965.4060
1120.0000;7948.2080
1121.0000;7962.9690
1122.0000;7986.5450
1123.0000;7991.5140
1124.0000;7982.5080
1125.0000;7973.4850
1126.0000;7976.7980
1127.0000;7978.7210
1128.0000;7962.8900
1129.0000;7930.7770
1130.0000;7907.2090
1131.0000;7914.5960
1132.0000;7943.0080
1133.0000;7964.6130
1134.0000;7965.9860
1135.0000;7958.1220
1136.0000;7952.1900
1137.0000;7947.0230
1138.0000;7942.6490
1139.0000;7941.2630
1140.0000;7940.0480
1141.0000;7933.0150
1142.0000;7920.4710
1143.0000;7907.8120
1144.0000;7897.2560
1145.0000;7892.8230
1146.0000;7895.1120
1147.0000;7905.8080
1148.0000;7916.4270
1149.0000;7913.0770
1150.0000;7897.6700
1151.0000;7885.2160
1152.0000;7887.1640
1153.0000;7894.3600
1154.0000;7894.2990
1155.0000;7885.1800
1156.0000;7874.6570
1157.0000;7868.3760
1158.0000;7866.4820
1159.0000;7865.9760
1160.0000;7865.3960
1161.0000;7869.7200
1162.0000;7882.7850
1163.0000;7901.2910
1164.0000;7917.0980
1165.0000;7921.1070
1166.0000;7921.3620
1167.0000;7936.6060
1168.0000;7964.6170
1169.0000;7982.9290
1170.0000;7972.5700
1171.0000;7941.7570
1172.0000;7916.6680
1173.0000;7909.0290
1174.0000;7912.4540
1175.0000;7919.2920
1176.0000;7931.9940
1177.0000;7945.2470
1178.0000;7955.6870
1179.0000;7960.0810
1180.0000;7954.9820
1181.0000;7941.0490
1182.0000;7932.2000
1183.0000;7943.1160
1184.0000;7964.7340
1185.0000;7983.9700
1186.0000;7993.8860
1187.0000;8000.1380
1188.0000;8012.7270
1189.0000;8024.0150
1190.0000;8029.7050
1191.0000;8026.8600
1192.0000;8020.8720
1193.0000;8021.5340
1194.0000;8029.4250
1195.0000;8042.6360
1196.0000;8060.6810
1197.0000;8079.0830
1198.0000;8097.0100
1199.0000;8109.9260
1200.0000;8116.4980
1201.0000;8121.3820
1202.0000;8119.9110
1203.0000;8116.8710
1204.0000;8114.1500
1205.0000;8110.7450
1206.0000;8105.2440
1207.0000;8101.2010
1208.0000;8106.3380
1209.0000;8127.8930
1210.0000;8150.6210
1211.0000;8156.0080
1212.0000;8141.6600
1213.0000;8126.4140
1214.0000;8125.9850
1215.0000;8135.7540
1216.0000;8151.1240
1217.0000;8169.7540
1218.0000;8188.1780
1219.0000;8204.9150
1220.0000;8213.2530
1221.0000;8214.1440
1222.0000;8206.7400
1223.0000;8194.5530
1224.0000;8184.8080
1225.0000;8180.0850
1226.0000;8182.3480
1227.0000;8192.2610
1228.0000;8209.6460
1229.0000;8232.9960
1230.0000;8257.2750
1231.0000;8270.7600
1232.0000;8262.3590
1233.0000;8243.2670
1234.0000;8241.6100
1235.0000;8264.5950
1236.0000;8292.2470
1237.0000;8309.5330
1238.0000;8315.6530
1239.0000;8316.6130
1240.0000;8312.9420
1241.0000;8308.2460
1242.0000;8312.0570
1243.0000;8322.2660
1244.0000;8333.7000
1245.0000;8345.0860
1246.0000;8349.4280
1247.0000;8339.8050
1248.0000;8317.4740
1249.0000;8300.3360
1250.0000;8303.4940
1251.0000;8317.6480
1252.0000;8325.3900
1253.0000;8323.7440
1254.0000;8322.6870
1255.0000;8332.6040
1256.0000;8344.6630
1257.0000;8349.6980
1258.0000;8343.5360
1259.0000;8335.8190
1260.0000;8337.6870
1261.0000;8345.7270
1262.0000;8352.8490
1263.0000;8354.8190
1264.0000;8357.2430
1265.0000;8367.7490
1266.0000;8382.0860
1267.0000;8391.7230
1268.0000;8390.6230
1269.0000;8384.5110
1270.0000;8382.4910
1271.0000;8386.3850
1272.0000;8398.3790
1273.0000;8421.9760
1274.0000;8449.2050
1275.0000;8471.7740
1276.0000;8484.0920
1277.0000;8491.2030
1278.0000;8503.0060
1279.0000;8513.3190
1280.0000;8528.8540
1281.0000;8548.4110
1282.0000;8564.5960
1283.0000;8574.7610
1284.0000;8577.0240
1285.0000;8582.5250
1286.0000;8595.6120
1287.0000;8605.3500
1288.0000;8605.2300
1289.0000;8595.8630
1290.0000;8588.0160
1291.0000;8587.7900
1292.0000;8592.3210
1293.0000;8598.9790
1294.0000;8607.0670
1295.0000;8613.6090
1296.0000;8615.4910
1297.0000;8614.7810
1298.0000;8614.1640
1299.0000;8615.3650
1300.0000;8626.0310
1301.0000;8655.3300
1302.0000;8689.7340
1303.0000;8719.6440
1304.0000;8735.2990
1305.0000;8737.2950
1306.0000;8727.2350
1307.0000;8710.4140
1308.0000;8710.6690
1309.0000;8736.0580
1310.0000;8762.4860
1311.0000;8770.2270
1312.0000;8763.7110
1313.0000;8758.9720
1314.0000;8761.2350
1315.0000;8766.4070
1316.0000;8774.0260
1317.0000;8783.0790
1318.0000;8793.5160
1319.0000;8803.7130
1320.0000;8812.5790
1321.0000;8821.7240
1322.0000;8828.4340
1323.0000;8834.3620
1324.0000;8842.0680
1325.0000;8844.1460
1326.0000;8832.9160
1327.0000;8814.6850
1328.0000;8813.4620
1329.0000;8848.8260
1330.0000;8893.5640
1331.0000;8910.2620
1332.0000;8896.5170
1333.0000;8884.5720
1334.0000;8901.0780
1335.0000;8924.5280
1336.0000;8938.0210
1337.0000;8937.7160
1338.0000;8930.7750
1339.0000;8923.8800
1340.0000;8915.4890
1341.0000;8908.2190
1342.0000;8904.5270
1343.0000;8905.2000
1344.0000;8907.8410
1345.0000;8915.3140
1346.0000;8927.3660
1347.0000;8942.5920
1348.0000;8957.1210
1349.0000;8971.6600
1350.0000;8980.5660
1351.0000;8985.7500
1352.0000;8986.0120
1353.0000;8984.9270
1354.0000;8990.4160
1355.0000;8998.0650
1356.0000;9004.7220
1357.0000;9008.4740
1358.0000;9007.8190
1359.0000;9002.9770
1360.0000;8993.9280
1361.0000;8983.6370
1362.0000;8973.0550
1363.0000;8970.7860
1364.0000;8985.4750
1365.0000;9010.5270
1366.0000;9023.4260
1367.0000;9011.8520
1368.0000;8996.6020
1369.0000;9000.4500
1370.0000;9017.9370
1371.0000;9034.0640
1372.0000;9041.3970
1373.0000;9043.2970
1374.0000;9043.4640
1375.0000;9041.7480
1376.0000;9045.1570
1377.0000;9057.1440
1378.0000;9073.4910
1379.0000;9094.0480
1380.0000;9113.2620
1381.0000;9127.1020
1382.0000;9131.8270
1383.0000;9131.3970
1384.0000;9137.3380
1385.0000;9147.3200
1386.0000;9160.3990
1387.0000;9176.5340
1388.0000;9191.1580
1389.0000;9206.2660
1390.0000;9215.1600
1391.0000;9212.9810
1392.0000;9194.0000
1393.0000;9178.2760
1394.0000;9193.0390
1395.0000;9233.6480
1396.0000;9267.0950
1397.0000;9270.8600
1398.0000;9263.1050
1399.0000;9271.5800
1400.0000;9290.4600
1401.0000;9306.4650
1402.0000;9312.4330
1403.0000;9312.2260
1404.0000;9314.3620
1405.0000;9317.8360
1406.0000;9324.9390
1407.0000;9337.0410
1408.0000;9352.4660
1409.0000;9372.4330
1410.0000;9392.3520
1411.0000;9409.4050
1412.0000;9421.8970
1413.0000;9427.7070
1414.0000;9435.2400
1415.0000;9440.2200
1416.0000;9441.4960
1417.0000;9438.3800
1418.0000;9435.0580
1419.0000;9437.6260
1420.0000;9447.7950
1421.0000;9466.6230
1422.0000;9496.7310
1423.0000;9522.2530
1424.0000;9529.0470
1425.0000;9515.8840
1426.0000;9505.1810
1427.0000;9511.1570
1428.0000;9521.5900
1429.0000;9527.6600
1430.0000;9528.7610
1431.0000;9528.1360
1432.0000;9526.6240
1433.0000;9525.7230
1434.0000;9529.5450
1435.0000;9536.4390
1436.0000;9541.2640
1437.0000;9540.3090
1438.0000;9538.6510
1439.0000;9543.0100
1440.0000;9551.0220
1441.0000;9557.9590
1442.0000;9560.7780
1443.0000;9560.7400
1444.0000;9557.9380
1445.0000;9555.5200
1446.0000;9564.0670
1447.0000;9588.6360
1448.0000;9612.1180
1449.0000;9616.2350
1450.0000;9606.2150
1451.0000;9606.7450
1452.0000;9627.3150
1453.0000;9652.0550
1454.0000;9669.4660
1455.0000;9676.7760
1456.0000;9679.0970
1457.0000;9676.2250
1458.0000;9667.7670
1459.0000;9656.6130
1460.0000;9645.9210
1461.0000;9639.7680
1462.0000;9641.1870
1463.0000;9648.5490
1464.0000;9657.6910
1465.0000;9669.2930
1466.0000;9681.0450
1467.0000;9690.8510
1468.0000;9698.2000
1469.0000;9708.7320
1470.0000;9712.3960
1471.0000;9702.3970
1472.0000;9678.8870
1473.0000;9661.8960
1474.0000;9670.3120
1475.0000;9693.1620
1476.0000;9708.0650
1477.0000;9712.1100
1478.0000;9714.9290
1479.0000;9722.4630
1480.0000;9731.9310
1481.0000;9746.1160
1482.0000;9762.8550
1483.0000;9777.6660
1484.0000;9791.0600
1485.0000;9795.7300
1486.0000;9788.6090
1487.0000;9773.6810
1488.0000;9774.3210
1489.0000;9806.2290
1490.0000;9848.4700
1491.0000;9879.1300
1492.0000;9891.7560
1493.0000;9890.0410
1494.0000;9873.3950
1495.0000;9854.9350
1496.0000;9855.9650
1497.0000;9873.3670
1498.0000;9893.6710
1499.0000;9909.6550
1500.0000;9921.8980
1501.0000;9933.9470
1502.0000;9940.0080
1503.0000;9944.8070
1504.0000;9947.9610
1505.0000;9947.1210
1506.0000;9938.4510
1507.0000;9932.3100
1508.0000;9946.6100
1509.0000;9984.6290
1510.0000;10021.8000
1511.0000;10041.3200
1512.0000;10046.8600
1513.0000;10060.3300
1514.0000;10078.7900
1515.0000;10089.6800
1516.0000;10086.7900
1517.0000;10077.5400
1518.0000;10081.2300
1519.0000;10095.1700
1520.0000;10105.3300
1521.0000;10101.3100
1522.0000;10094.7600
1523.0000;10097.7300
1524.0000;10110.8800
1525.0000;10133.0900
1526.0000;10163.0400
1527.0000;10192.2300
1528.0000;10220.9200
1529.0000;10238.1200
1530.0000;10246.9900
1531.0000;10245.7200
1532.0000;10235.7900
1533.0000;10223.1700
1534.0000;10213.2200
1535.0000;10219.0700
1536.0000;10243.2100
1537.0000;10268.5200
1538.0000;10280.8100
1539.0000;10279.4900
1540.0000;10270.0700
1541.0000;10253.8900
1542.0000;10245.3900
1543.0000;10257.0200
1544.0000;10276.7600
1545.0000;10285.7600
1546.0000;10284.2900
1547.0000;10286.3200
1548.0000;10299.1000
1549.0000;10313.4100
1550.0000;10323.1000
1551.0000;10327.6800
1552.0000;10335.4100
1553.0000;10348.5500
1554.0000;10359.4300
1555.0000;10364.1200
1556.0000;10363.6200
1557.0000;10368.1900
1558.0000;10379.3600
1559.0000;10391.1500
1560.0000;10403.4100
1561.0000;10409.4600
1562.0000;10405.6300
1563.0000;10391.8000
1564.0000;10382.4300
1565.0000;10388.8100
1566.0000;10402.6000
1567.0000;10413.8700
1568.0000;10420.3600
1569.0000;10421.6200
1570.0000;10416.3200
1571.0000;10408.7400
1572.0000;10405.3000
1573.0000;10406.9000
1574.0000;10412.8200
1575.0000;10422.8000
1576.0000;10435.0000
1577.0000;10449.2100
1578.0000;10460.0400
1579.0000;10464.7400
1580.0000;10461.2200
1581.0000;10460.0400
1582.0000;10471.8400
1583.0000;10486.4900
1584.0000;10493.1000
1585.0000;10491.9300
1586.0000;10498.0600
1587.0000;10521.8600
1588.0000;10544.8900
1589.0000;10550.4800
1590.0000;10539.8700
1591.0000;10530.3300
1592.0000;10528.4600
1593.0000;10530.3500
1594.0000;10532.2100
1595.0000;10538.3800
1596.0000;10551.9900
1597.0000;10572.2700
1598.0000;10594.2300
1599.0000;10619.4000
1600.0000;10633.3000
1601.0000;10629.1400
1602.0000;10607.5100
1603.0000;10594.6500
1604.0000;10607.2000
1605.0000;10634.1400
1606.0000;10665.8900
1607.0000;10697.3300
1608.0000;10722.7100
1609.0000;10736.7700
1610.0000;10733.6700
1611.0000;10713.7400
1612.0000;10686.5700
1613.0000;10680.5500
1614.0000;10702.1500
1615.0000;10723.9500
1616.0000;10725.4100
1617.0000;10720.3900
1618.0000;10726.0000
1619.0000;10738.9000
1620.0000;10749.5200
1621.0000;10750.8700
1622.0000;10757.3200
1623.0000;10787.9200
1624.0000;10827.1700
1625.0000;10853.2300
1626.0000;10854.3100
1627.0000;10851.7200
1628.0000;10870.8800
1629.0000;10892.7600
1630.0000;10911.2400
1631.0000;10918.7400
1632.0000;10913.1400
1633.0000;10892.9800
1634.0000;10868.6800
1635.0000;10854.2500
1636.0000;10854.3400
1637.0000;10862.1200
1638.0000;10875.4700
1639.0000;10899.5100
1640.0000;10937.7500
1641.0000;10976.0700
1642.0000;11000.2100
1643.0000;11002.1800
1644.0000;10994.8300
1645.0000;10991.7600
1646.0000;10984.1000
1647.0000;10968.5700
1648.0000;10952.8400
1649.0000;10951.4100
1650.0000;10972.6500
1651.0000;10999.3600
1652.0000;11013.9700
1653.0000;11019.7000
1654.0000;11030.7500
1655.0000;11045.2900
1656.0000;11055.4100
1657.0000;11056.6200
1658.0000;11053.0000
1659.0000;11058.7800
1660.0000;11068.5200
1661.0000;11067.9700
1662.0000;11050.4500
1663.0000;11030.5000
1664.0000;11019.6500
1665.0000;11019.4400
1666.0000;11024.6700
1667.0000;11034.8000
1668.0000;11039.8600
1669.0000;11029.0000
1670.0000;11015.3100
1671.0000;11014.6300
1672.0000;11028.3900
1673.0000;11049.5000
1674.0000;11075.5700
1675.0000;11096.3900
1676.0000;11105.6700
1677.0000;11101.5600
1678.0000;11097.3700
1679.0000;11094.7900
1680.0000;11094.3600
1681.0000;11098.3400
1682.0000;11104.9900
1683.0000;11113.4000
1684.0000;11119.9500
1685.0000;11118.7800
1686.0000;11105.9400
1687.0000;11096.6500
1688.0000;11107.1800
1689.0000;11128.0500
1690.0000;11144.1300
1691.0000;11150.0200
1692.0000;11152.1800
1693.0000;11154.3000
1694.0000;11155.8400
1695.0000;11166.9000
1696.0000;11177.8600
1697.0000;11170.7200
1698.0000;11137.9400
1699.0000;11107.2000
1700.0000;11102.6400
1701.0000;11116.2700
1702.0000;11124.2000
1703.0000;11126.8700
1704.0000;11134.8800
1705.0000;11152.8300
1706.0000;11168.3500
1707.0000;11170.2300
1708.0000;11160.1200
1709.0000;11154.4900
1710.0000;11157.5200
1711.0000;11157.8100
1712.0000;11147.4400
1713.0000;11133.2000
1714.0000;11118.2100
1715.0000;11109.3800
1716.0000;11116.7700
1717.0000;11146.0900
1718.0000;11176.3100
1719.0000;11180.8800
1720.0000;11173.0000
1721.0000;11188.1200
1722.0000;11225.7000
1723.0000;11250.0900
1724.0000;11237.5500
1725.0000;11212.0900
1726.0000;11209.1100
1727.0000;11223.6100
1728.0000;11235.6900
1729.0000;11240.0800
1730.0000;11251.9900
1731.0000;11290.3800
1732.0000;11324.9400
1733.0000;11322.1500
1734.0000;11284.7100
1735.0000;11265.2600
1736.0000;11292.3900
1737.0000;11332.3400
1738.0000;11353.6600
1739.0000;11357.5500
1740.0000;11351.0900
1741.0000;11334.0800
1742.0000;11319.6900
1743.0000;11319.2900
1744.0000;11327.6900
1745.0000;11337.8900
1746.0000;11348.0200
1747.0000;11349.7700
1748.0000;11339.9100
1749.0000;11341.7400
1750.0000;11376.3300
1751.0000;11420.5100
1752.0000;11448.6400
1753.0000;11453.9500
1754.0000;11457.8400
1755.0000;11467.4700
1756.0000;11471.5900
1757.0000;11469.6200
1758.0000;11460.9400
1759.0000;11451.8600
1760.0000;11443.9500
1761.0000;11437.1200
1762.0000;11430.9600
1763.0000;11430.2400
1764.0000;11434.3000
1765.0000;11445.1500
1766.0000;11459.2000
1767.0000;11474.6400
1768.0000;11500.4500
1769.0000;11548.3400
1770.0000;11585.7700
1771.0000;11590.9500
1772.0000;11564.0700
1773.0000;11542.3800
1774.0000;11537.9300
1775.0000;11536.5800
1776.0000;11527.4100
1777.0000;11521.5300
1778.0000;11523.9800
1779.0000;11535.8900
1780.0000;11551.8000
1781.0000;11569.2300
1782.0000;11577.8000
1783.0000;11568.6000
1784.0000;11551.9400
1785.0000;11551.0600
1786.0000;11566.1300
1787.0000;11578.8400
1788.0000;11581.6600
1789.0000;11572.0100
1790.0000;11544.9500
1791.0000;11512.9600
1792.0000;11492.9100
1793.0000;11494.0500
1794.0000;11506.6900
1795.0000;11525.6900
1796.0000;11545.2000
1797.0000;11557.0500
1798.0000;11558.3000
1799.0000;11556.0400
1800.0000;11550.5900
1801.0000;11546.2100
1802.0000;11547.4600
1803.0000;11552.2400
1804.0000;11558.5500
1805.0000;11565.1900
1806.0000;11571.3300
1807.0000;11575.0100
1808.0000;11575.8900
1809.0000;11575.6000
1810.0000;11570.8200
1811.0000;11561.6300
1812.0000;11548.8500
1813.0000;11535.8800
1814.0000;11524.8400
1815.0000;11513.2700
1816.0000;11495.5200
1817.0000;11484.0900
1818.0000;11482.8800
1819.0000;11494.5500
1820.0000;11509.8600
1821.0000;11525.3200
1822.0000;11534.4600
1823.0000;11532.7200
1824.0000;11522.4600
1825.0000;11507.5800
1826.0000;11497.5800
1827.0000;11514.8300
1828.0000;11564.3400
1829.0000;11609.5300
1830.0000;11615.2600
1831.0000;11601.0300
1832.0000;11608.7400
1833.0000;11628.3700
1834.0000;11636.7400
1835.0000;11625.4600
1836.0000;11615.1100
1837.0000;11626.1300
1838.0000;11640.8700
1839.0000;11637.2500
1840.0000;11621.9200
1841.0000;11625.5400
1842.0000;11658.3100
1843.0000;11688.7700
1844.0000;11692.0100
1845.0000;11680.7600
1846.0000;11682.2200
1847.0000;11688.7500
1848.0000;11680.6600
1849.0000;11652.5300
1850.0000;11636.3400
1851.0000;11657.2200
1852.0000;11696.6100
1853.0000;11723.9700
1854.0000;11737.8200
1855.0000;11754.5300
1856.0000;11774.8500
1857.0000;11789.1000
1858.0000;11794.4800
1859.0000;11794.9400
1860.0000;11807.8300
1861.0000;11826.6400
1862.0000;11839.6500
1863.0000;11842.3900
1864.0000;11855.9000
1865.0000;11901.9200
1866.0000;11946.2900
1867.0000;11958.8700
1868.0000;11940.8900
1869.0000;11930.6800
1870.0000;11937.2200
1871.0000;11944.6300
1872.0000;11943.0900
1873.0000;11944.6100
1874.0000;11967.1600
1875.0000;11995.4200
1876.0000;11993.6100
1877.0000;11957.1300
1878.0000;11935.2300
1879.0000;11962.2400
1880.0000;12005.2200
1881.0000;12027.6700
1882.0000;12033.4000
1883.0000;12042.3500
1884.0000;12052.2300
1885.0000;12054.0600
1886.0000;12042.3800
1887.0000;12037.2400
1888.0000;12063.5800
1889.0000;12107.3500
1890.0000;12139.8900
1891.0000;12153.7500
1892.0000;12164.6400
1893.0000;12179.5200
1894.0000;12188.4500
1895.0000;12192.9000
1896.0000;12193.9900
1897.0000;12207.5400
1898.0000;12227.5400
1899.0000;12236.5300
1900.0000;12225.9300
1901.0000;12214.8900
1902.0000;12226.3800
1903.0000;12242.1900
1904.0000;12238.8400
1905.0000;12223.1000
1906.0000;12223.3500
1907.0000;12249.0100
1908.0000;12274.8000
1909.0000;12279.5800
1910.0000;12284.4700
1911.0000;12324.7000
1912.0000;12375.5800
1913.0000;12394.6300
1914.0000;12368.0600
1915.0000;12341.8900
1916.0000;12347.1200
1917.0000;12369.4300
1918.0000;12399.0200
1919.0000;12431.3900
1920.0000;12466.7000
1921.0000;12491.6700
1922.0000;12493.2800
1923.0000;12461.7500
1924.0000;12431.1400
1925.0000;12441.5900
1926.0000;12473.2600
1927.0000;12491.4600
1928.0000;12496.1400
1929.0000;12511.2800
1930.0000;12541.2600
1931.0000;12565.9300
1932.0000;12572.9700
1933.0000;12565.9000
1934.0000;12558.4600
1935.0000;12553.7800
1936.0000;12565.5600
1937.0000;12596.9100
1938.0000;12630.7800
1939.0000;12657.9900
1940.0000;12673.8300
1941.0000;12687.4800
1942.0000;12687.1000
1943.0000;12672.6600
1944.0000;12648.1800
1945.0000;12643.5000
1946.0000;12674.8200
1947.0000;12713.4600
1948.0000;12729.7300
1949.0000;12735.2200
1950.0000;12753.3000
1951.0000;12774.7100
1952.0000;12791.0800
1953.0000;12796.3500
1954.0000;12795.8000
1955.0000;12795.9300
1956.0000;12794.6300
1957.0000;12793.3400
1958.0000;12796.6700
1959.0000;12813.4200
1960.0000;12841.6700
1961.0000;12870.0700
1962.0000;12888.0500
1963.0000;12906.2000
1964.0000;12942.9300
1965.0000;12979.9600
1966.0000;13009.1800
1967.0000;13023.6100
1968.0000;13040.2500
1969.0000;13061.6100
1970.0000;13080.3400
1971.0000;13097.5700
1972.0000;13108.1900
1973.0000;13117.5500
1974.0000;13123.9200
1975.0000;13138.7700
1976.0000;13159.8100
1977.0000;13176.6700
1978.0000;13182.5900
1979.0000;13190.6000
1980.0000;13226.0800
1981.0000;13257.9400
1982.0000;13256.0400
1983.0000;13224.6700
1984.0000;13208.0800
1985.0000;13220.1800
1986.0000;13239.7900
1987.0000;13252.7500
1988.0000;13267.6500
1989.0000;13291.4400
1990.0000;13318.5500
1991.0000;13352.6800
1992.0000;13385.4500
1993.0000;13412.1800
1994.0000;13427.8700
1995.0000;13430.8300
1996.0000;13428.8700
1997.0000;13421.2100
1998.0000;13417.2600
1999.0000;13422.2700
2000.0000;13446.8400
2001.0000;13489.1800
2002.0000;13525.6800
2003.0000;13539.6600
2004.0000;13545.7600
2005.0000;13571.4100
2006.0000;13596.1800
2007.0000;13612.3600
2008.0000;13615.6800
2009.0000;13621.2400
2010.0000;13631.4500
2011.0000;13631.9300
2012.0000;13615.9500
2013.0000;13597.1700
2014.0000;13593.3300
2015.0000;13599.0500
2016.0000;13595.1700
2017.0000;13586.4600
2018.0000;13594.7800
2019.0000;13628.5800
2020.0000;13664.0000
2021.0000;13682.5400
2022.0000;13694.4200
2023.0000;13727.4600
2024.0000;13758.3500
2025.0000;13762.2400
2026.0000;13734.0800
2027.0000;13708.4000
2028.0000;13703.6700
2029.0000;13707.2800
2030.0000;13707.6200
2031.0000;13712.1300
2032.0000;13725.2400
2033.0000;13738.1700
2034.0000;13728.1000
2035.0000;13696.5100
2036.0000;13688.1800
2037.0000;13730.6800
2038.0000;13772.5800
2039.0000;13762.5100
2040.0000;13737.7500
2041.0000;13761.5800
2042.0000;13811.8400
2043.0000;13832.4000
2044.0000;13808.0000
2045.0000;13779.5800
2046.0000;13769.3900
2047.0000;13773.8000
2048.0000;13792.9500
2049.0000;13818.6200
2050.0000;13827.8500
2051.0000;13822.9100
2052.0000;13827.4100
2053.0000;13843.9300
2054.0000;13857.4800
2055.0000;13859.5500
2056.0000;13856.2000
2057.0000;13853.9800
2058.0000;13855.7600
2059.0000;13868.4900
2060.0000;13891.1300
2061.0000;13922.6800
2062.0000;13955.5700
2063.0000;13980.2900
2064.0000;13989.3900
2065.0000;13983.2000
2066.0000;13971.5100
2067.0000;13958.6600
2068.0000;13960.0000
2069.0000;13978.5900
2070.0000;14012.8100
2071.0000;14056.6200
2072.0000;14076.5400
2073.0000;14052.4400
2074.0000;14016.9700
2075.0000;14011.3100
2076.0000;14020.1400
2077.0000;14023.6900
2078.0000;14025.6300
2079.0000;14025.7000
2080.0000;14026.8200
2081.0000;14051.3900
2082.0000;14109.6000
2083.0000;14155.7000
2084.0000;14150.1600
2085.0000;14113.1400
2086.0000;14087.2000
2087.0000;14075.6200
2088.0000;14079.4900
2089.0000;14101.3000
2090.0000;14125.9700
2091.0000;14143.0200
2092.0000;14153.0200
2093.0000;14151.6100
2094.0000;14154.3900
2095.0000;14188.0300
2096.0000;14239.5700
2097.0000;14289.2000
2098.0000;14321.4300
2099.0000;14337.7900
2100.0000;14333.2000
2101.0000;14322.2700
2102.0000;14323.6300
2103.0000;14330.0100
2104.0000;14337.9900
2105.0000;14351.5100
2106.0000;14381.0700
2107.0000;14414.4800
2108.0000;14424.9600
2109.0000;14402.7000
2110.0000;14375.5500
2111.0000;14362.2900
2112.0000;14367.2000
2113.0000;14394.4300
2114.0000;14433.0100
2115.0000;14463.6900
2116.0000;14478.6400
2117.0000;14488.1000
2118.0000;14489.6500
2119.0000;14490.0400
2120.0000;14494.4000
2121.0000;14497.1600
2122.0000;14496.6300
2123.0000;14495.5000
2124.0000;14500.1800
2125.0000;14506.0500
2126.0000;14502.7200
2127.0000;14494.3000
2128.0000;14503.7800
2129.0000;14538.1200
2130.0000;14561.8600
2131.0000;14550.4300
2132.0000;14525.5100
2133.0000;14516.8400
2134.0000;14514.9200
2135.0000;14507.6800
2136.0000;14498.4200
2137.0000;14486.5000
2138.0000;14476.1800
2139.0000;14480.2800
2140.0000;14504.8800
2141.0000;14527.9600
2142.0000;14524.9200
2143.0000;14520.3000
2144.0000;14554.7100
2145.0000;14598.0500
2146.0000;14598.9000
2147.0000;14558.4600
2148.0000;14544.2700
2149.0000;14575.2800
2150.0000;14610.5200
2151.0000;14626.6700
2152.0000;14628.6000
2153.0000;14622.9700
2154.0000;14609.9400
2155.0000;14602.8000
2156.0000;14605.2000
2157.0000;14621.2000
2158.0000;14648.1900
2159.0000;14668.8100
2160.0000;14671.9300
2161.0000;14669.0300
2162.0000;14670.7100
2163.0000;14670.2700
2164.0000;14667.5500
2165.0000;14663.5200
2166.0000;14661.1700
2167.0000;14660.3200
2168.0000;14656.3400
2169.0000;14650.4600
2170.0000;14650.4000
2171.0000;14659.0000
2172.0000;14684.0300
2173.0000;14735.4400
2174.0000;14779.2100
2175.0000;14791.7100
2176.0000;14771.0800
2177.0000;14745.1400
2178.0000;14721.1100
2179.0000;14720.2100
2180.0000;14748.6300
2181.0000;14775.2600
2182.0000;14780.7000
2183.0000;14775.2800
2184.0000;14764.1600
2185.0000;14757.4600
2186.0000;14773.0800
2187.0000;14801.1900
2188.0000;14825.5400
2189.0000;14837.6600
2190.0000;14831.5600
2191.0000;14807.3600
2192.0000;14803.0900
2193.0000;14840.2700
2194.0000;14884.4500
2195.0000;14913.6100
2196.0000;14920.1600
2197.0000;14906.8500
2198.0000;14879.1600
2199.0000;14866.4000
2200.0000;14871.0600
2201.0000;14877.0500
2202.0000;14881.1100
2203.0000;14884.0000
2204.0000;14884.6900
2205.0000;14879.6500
2206.0000;14862.5000
2207.0000;14854.4200
2208.0000;14881.7400
2209.0000;14920.2600
2210.0000;14922.4000
2211.0000;14895.0000
2212.0000;14883.5200
2213.0000;14898.9700
2214.0000;14937.7900
2215.0000;14996.0600
2216.0000;15036.3800
2217.0000;15035.1400
2218.0000;15004.7000
2219.0000;14972.5000
2220.0000;14950.1700
2221.0000;14972.0600
2222.0000;15017.3100
2223.0000;15013.9900
2224.0000;14961.5300
2225.0000;14950.2900
2226.0000;15008.3100
2227.0000;15062.3500
2228.0000;15063.0200
2229.0000;15042.5600
2230.0000;15032.7300
2231.0000;15028.7300
2232.0000;15041.3000
2233.0000;15060.3800
2234.0000;15061.4500
2235.0000;15044.5700
2236.0000;15029.5100
2237.0000;15023.2300
2238.0000;15029.4800
2239.0000;15050.0700
2240.0000;15079.8900
2241.0000;15114.6900
2242.0000;15136.7000
2243.0000;15135.6000
2244.0000;15117.9300
2245.0000;15116.6400
2246.0000;15128.8400
2247.0000;15142.7700
2248.0000;15155.6100
2249.0000;15171.9000
2250.0000;15189.0300
2251.0000;15185.7700
2252.0000;15149.0800
2253.0000;15119.7800
2254.0000;15140.9100
2255.0000;15175.5600
2256.0000;15170.6300
2257.0000;15146.3900
2258.0000;15141.3200
2259.0000;15155.2500
2260.0000;15169.5900
2261.0000;15182.8600
2262.0000;15213.6600
2263.0000;15264.3600
2264.0000;15299.4200
2265.0000;15296.8300
2266.0000;15274.7600
2267.0000;15265.6600
2268.0000;15259.5400
2269.0000;15252.0800
2270.0000;15249.8300
2271.0000;15256.8300
2272.0000;15272.3700
2273.0000;15285.3500
2274.0000;15291.7900
2275.0000;15297.6500
2276.0000;15304.3100
2277.0000;15310.3400
2278.0000;15315.6200
2279.0000;15324.3700
2280.0000;15345.4500
2281.0000;15365.1700
2282.0000;15372.1600
2283.0000;15367.8200
2284.0000;15367.8200
2285.0000;15374.5900
2286.0000;15396.2200
2287.0000;15428.9400
2288.0000;15445.1700
2289.0000;15430.5900
2290.0000;15427.3000
2291.0000;15467.8500
2292.0000;15506.4400
2293.0000;15500.1200
2294.0000;15477.6000
2295.0000;15491.5400
2296.0000;15513.3600
2297.0000;15494.2500
2298.0000;15448.3400
2299.0000;15438.8400
2300.0000;15474.1700
2301.0000;15507.3000
2302.0000;15517.2900
2303.0000;15523.9200
2304.0000;15536.0200
2305.0000;15543.6100
2306.0000;15545.2300
2307.0000;15545.1800
2308.0000;15556.7900
2309.0000;15569.2000
2310.0000;15571.8500
2311.0000;15562.2400
2312.0000;15544.6200
2313.0000;15523.6400
2314.0000;15511.8300
2315.0000;15515.7600
2316.0000;15534.4600
2317.0000;15564.4900
2318.0000;15584.6000
2319.0000;15573.8800
2320.0000;15558.9700
2321.0000;15570.5000
2322.0000;15599.4500
2323.0000;15647.1600
2324.0000;15686.0200
2325.0000;15679.9600
2326.0000;15638.3400
2327.0000;15629.2300
2328.0000;15662.3000
2329.0000;15697.6600
2330.0000;15718.5100
2331.0000;15733.5600
2332.0000;15744.8200
2333.0000;15749.4600
2334.0000;15751.7500
2335.0000;15754.8000
2336.0000;15765.9700
2337.0000;15786.2600
2338.0000;15824.0600
2339.0000;15859.5300
2340.0000;15875.2700
2341.0000;15861.6000
2342.0000;15834.1100
2343.0000;15800.3700
2344.0000;15783.9100
2345.0000;15798.1600
2346.0000;15836.6100
2347.0000;15894.8800
2348.0000;15932.4300
2349.0000;15914.2500
2350.0000;15883.4000
2351.0000;15905.1700
2352.0000;15943.0400
2353.0000;15955.3200
2354.0000;15953.7800
2355.0000;15971.4900
2356.0000;15999.5500
2357.0000;16018.8800
2358.0000;16023.9500
2359.0000;16031.0100
2360.0000;16043.0400
2361.0000;16058.6700
2362.0000;16077.7600
2363.0000;16085.9700
2364.0000;16077.0700
2365.0000;16053.6400
2366.0000;16019.2000
2367.0000;15997.1000
2368.0000;16013.3100
2369.0000;16047.0100
2370.0000;16046.9300
2371.0000;16018.7900
2372.0000;15990.2400
2373.0000;15969.2500
2374.0000;15953.7200
2375.0000;15953.1100
2376.0000;15988.8000
2377.0000;16060.9800
2378.0000;16095.8000
2379.0000;16047.3000
2380.0000;15995.0400
2381.0000;16005.7400
2382.0000;16045.1900
2383.0000;16083.2700
2384.0000;16112.6700
2385.0000;16122.4500
2386.0000;16112.1500
2387.0000;16108.9300
2388.0000;16108.2400
2389.0000;16102.9000
2390.0000;16095.4700
2391.0000;16096.8100
2392.0000;16107.4400
2393.0000;16110.7500
2394.0000;16100.7900
2395.0000;16092.6800
2396.0000;16093.2100
2397.0000;16117.0300
2398.0000;16176.4300
2399.0000;16235.9100
2400.0000;16272.2400
2401.0000;16276.4000
2402.0000;16267.9800
2403.0000;16242.5100
2404.0000;16223.3500
2405.0000;16214.0100
2406.0000;16212.9800
2407.0000;16222.6000
2408.0000;16235.0200
2409.0000;16244.9300
2410.0000;16239.8500
2411.0000;16216.9900
2412.0000;16209.2100
2413.0000;16231.5000
2414.0000;16252.1900
2415.0000;16248.5500
2416.0000;16242.8100
2417.0000;16253.3100
2418.0000;16268.8000
2419.0000;16279.0400
2420.0000;16288.2600
2421.0000;16308.7000
2422.0000;16326.8500
2423.0000;16335.5400
2424.0000;16327.5100
2425.0000;16303.2600
2426.0000;16271.6500
2427.0000;16264.9600
2428.0000;16289.2700
2429.0000;16307.1600
2430.0000;16306.8800
2431.0000;16310.4600
2432.0000;16325.5300
2433.0000;16335.2800
2434.0000;16328.6600
2435.0000;16330.4500
2436.0000;16365.7600
2437.0000;16397.3800
2438.0000;16391.6700
2439.0000;16362.2200
2440.0000;16332.3500
2441.0000;16319.6400
2442.0000;16357.3300
2443.0000;16418.3900
2444.0000;16421.1400
2445.0000;16374.4600
2446.0000;16361.1000
2447.0000;16391.0800
2448.0000;16431.7000
2449.0000;16468.5900
2450.0000;16496.9000
2451.0000;16506.9600
2452.0000;16513.7800
2453.0000;16527.8900
2454.0000;16529.4000
2455.0000;16511.5200
2456.0000;16485.5900
2457.0000;16467.7000
2458.0000;16451.6000
2459.0000;16424.2700
2460.0000;16404.0500
2461.0000;16397.4200
2462.0000;16403.0400
2463.0000;16396.3100
2464.0000;16390.5600
2465.0000;16406.9800
2466.0000;16438.9200
2467.0000;16457.0500
2468.0000;16457.3700
2469.0000;16466.0100
2470.0000;16485.2100
2471.0000;16504.6300
2472.0000;16518.7400
2473.0000;16529.2400
2474.0000;16535.6900
2475.0000;16546.3900
2476.0000;16568.6700
2477.0000;16580.5100
2478.0000;16567.8000
2479.0000;16551.4200
2480.0000;16554.3800
2481.0000;16567.7000
2482.0000;16579.3800
2483.0000;16593.4700
2484.0000;16618.7900
2485.0000;16637.4700
2486.0000;16630.4500
2487.0000;16606.6300
2488.0000;16601.8700
2489.0000;16615.7800
2490.0000;16631.1800
2491.0000;16644.1100
2492.0000;16652.8400
2493.0000;16655.2100
2494.0000;16659.1700
2495.0000;16667.3300
2496.0000;16686.6700
2497.0000;16717.4800
2498.0000;16745.6200
2499.0000;16761.2200
2500.0000;16781.2700
2501.0000;16818.7600
2502.0000;16849.4700
2503.0000;16863.4000
2504.0000;16858.6500
2505.0000;16847.5000
2506.0000;16830.1200
2507.0000;16815.2100
2508.0000;16810.8200
2509.0000;16826.4100
2510.0000;16844.3400
2511.0000;16829.8100
2512.0000;16795.8000
2513.0000;16775.8200
2514.0000;16772.9300
2515.0000;16771.8700
2516.0000;16773.8500
2517.0000;16772.6400
2518.0000;16769.7800
2519.0000;16773.3100
2520.0000;16785.5700
2521.0000;16807.2400
2522.0000;16833.8300
2523.0000;16858.9300
2524.0000;16875.5600
2525.0000;16876.1100
2526.0000;16858.7100
2527.0000;16832.7000
2528.0000;16808.6200
2529.0000;16795.1300
2530.0000;16798.0800
2531.0000;16804.5700
2532.0000;16796.0000
2533.0000;16780.2100
2534.0000;16760.5200
2535.0000;16743.4000
2536.0000;16727.7500
2537.0000;16723.0400
2538.0000;16727.4500
2539.0000;16740.7300
2540.0000;16748.0200
2541.0000;16756.3800
2542.0000;16787.8600
2543.0000;16824.8000
2544.0000;16837.5700
2545.0000;16822.6000
2546.0000;16813.4700
2547.0000;16811.3300
2548.0000;16802.4600
2549.0000;16788.6200
2550.0000;16782.6700
2551.0000;16788.9100
2552.0000;16800.0100
2553.0000;16811.6000
2554.0000;16810.6400
2555.0000;16792.2200
2556.0000;16794.5100
2557.0000;16836.9600
2558.0000;16863.2900
2559.0000;16838.8900
2560.0000;16817.8200
2561.0000;16839.7800
2562.0000;16873.8200
2563.0000;16893.6100
2564.0000;16914.3600
2565.0000;16953.1700
2566.0000;16986.6300
2567.0000;17013.6300
2568.0000;17015.2200
2569.0000;16991.0300
2570.0000;16960.7800
2571.0000;16976.2900
2572.0000;17001.3600
2573.0000;16967.4400
2574.0000;16915.5900
2575.0000;16927.7300
2576.0000;16976.1500
2577.0000;16981.4300
2578.0000;16952.0800
2579.0000;16937.5100
2580.0000;16939.6100
2581.0000;16945.7600
2582.0000;16954.9100
2583.0000;16963.9000
2584.0000;16967.8600
2585.0000;16959.9600
2586.0000;16941.7100
2587.0000;16931.7900
2588.0000;16938.0100
2589.0000;16957.7100
2590.0000;16984.7800
2591.0000;16994.3600
2592.0000;16975.0200
2593.0000;16962.4100
2594.0000;16973.7900
2595.0000;17002.1800
2596.0000;17042.3400
2597.0000;17062.0700
2598.0000;17041.0500
2599.0000;17016.3000
2600.0000;17013.9900
2601.0000;17031.9900
2602.0000;17070.0900
2603.0000;17106.1200
2604.0000;17117.2400
2605.0000;17122.3300
2606.0000;17153.6000
2607.0000;17164.5300
2608.0000;17118.6600
2609.0000;17065.9300
2610.0000;17064.3000
2611.0000;17096.1000
2612.0000;17129.3100
2613.0000;17153.7800
2614.0000;17141.1600
2615.0000;17125.2200
2616.0000;17170.5500
2617.0000;17234.5300
2618.0000;17266.0000
2619.0000;17249.7300
2620.0000;17187.9000
2621.0000;17114.5700
2622.0000;17111.7100
2623.0000;17155.7100
2624.0000;17141.1600
2625.0000;17096.7500
2626.0000;17100.7600
2627.0000;17140.1300
2628.0000;17144.6200
2629.0000;17122.4200
2630.0000;17132.1200
2631.0000;17165.2600
2632.0000;17170.2500
2633.0000;17146.8300
2634.0000;17141.6800
2635.0000;17160.9600
2636.0000;17190.8000
2637.0000;17222.4300
2638.0000;17250.1400
2639.0000;17265.3000
2640.0000;17275.3600
2641.0000;17278.5000
2642.0000;17279.9400
2643.0000;17281.7900
2644.0000;17288.1700
2645.0000;17300.2800
2646.0000;17318.2300
2647.0000;17337.7800
2648.0000;17352.1000
2649.0000;17355.1000
2650.0000;17348.3500
2651.0000;17333.9700
2652.0000;17325.3100
2653.0000;17329.9100
2654.0000;17335.2700
2655.0000;17335.1800
2656.0000;17327.2400
2657.0000;17310.4200
2658.0000;17305.9100
2659.0000;17325.5100
2660.0000;17350.6900
2661.0000;17366.9800
2662.0000;17369.5200
2663.0000;17355.3700
2664.0000;17329.8600
2665.0000;17302.0200
2666.0000;17289.3100
2667.0000;17304.0200
2668.0000;17316.0800
2669.0000;17297.8800
2670.0000;17287.5400
2671.0000;17311.8100
2672.0000;17334.7400
2673.0000;17327.8600
2674.0000;17315.8200
2675.0000;17319.2500
2676.0000;17329.4700
2677.0000;17342.8400
2678.0000;17353.2900
2679.0000;17356.9900
2680.0000;17349.0300
2681.0000;17325.3800
2682.0000;17315.5700
2683.0000;17349.3500
2684.0000;17385.5500
2685.0000;17381.6300
2686.0000;17362.2700
2687.0000;17360.3900
2688.0000;17352.6600
2689.0000;17319.3000
2690.0000;17293.7100
2691.0000;17306.8400
2692.0000;17334.4700
2693.0000;17342.4900
2694.0000;17338.0100
2695.0000;17327.4500
2696.0000;17314.7700
2697.0000;17309.4600
2698.0000;17310.1300
2699.0000;17304.5400
2700.0000;17317.1400
2701.0000;17374.9200
2702.0000;17423.1700
2703.0000;17397.1400
2704.0000;17349.5400
2705.0000;17366.0900
2706.0000;17392.3300
2707.0000;17364.6800
2708.0000;17330.9400
2709.0000;17342.4600
2710.0000;17368.9900
2711.0000;17366.0100
2712.0000;17363.5100
2713.0000;17392.9000
2714.0000;17430.1000
2715.0000;17452.9400
2716.0000;17464.2700
2717.0000;17484.2700
2718.0000;17492.2900
2719.0000;17484.3300
2720.0000;17465.4800
2721.0000;17452.4800
2722.0000;17443.3300
2723.0000;17432.6400
2724.0000;17428.3100
2725.0000;17429.5300
2726.0000;17436.2000
2727.0000;17441.0800
2728.0000;17447.3200
2729.0000;17455.8000
2730.0000;17467.9400
2731.0000;17488.1500
2732.0000;17507.5400
2733.0000;17523.0500
2734.0000;17526.2700
2735.0000;17517.5800
2736.0000;17504.9000
2737.0000;17503.0900
2738.0000;17509.8500
2739.0000;17521.5300
2740.0000;17533.8000
2741.0000;17541.7100
2742.0000;17542.1700
2743.0000;17534.7100
2744.0000;17532.8100
2745.0000;17553.7900
2746.0000;17571.8500
2747.0000;17564.7600
2748.0000;17546.5300
2749.0000;17530.6500
2750.0000;17526.4100
2751.0000;17541.5700
2752.0000;17567.8600
2753.0000;17595.4600
2754.0000;17609.4800
2755.0000;17599.8700
2756.0000;17589.7300
2757.0000;17602.0800
2758.0000;17628.5100
2759.0000;17664.4900
2760.0000;17673.3700
2761.0000;17630.0900
2762.0000;17592.1200
2763.0000;17604.4600
2764.0000;17619.6800
2765.0000;17609.0500
2766.0000;17596.6800
2767.0000;17593.8000
2768.0000;17590.1100
2769.0000;17581.8800
2770.0000;17583.7100
2771.0000;17600.8500
2772.0000;17611.9000
2773.0000;17604.8200
2774.0000;17588.5000
2775.0000;17569.1800
2776.0000;17549.8900
2777.0000;17536.2400
2778.0000;17540.1700
2779.0000;17564.2100
2780.0000;17583.1900
2781.0000;17585.5100
2782.0000;17586.0800
2783.0000;17590.0800
2784.0000;17614.3300
2785.0000;17653.3800
2786.0000;17649.5800
2787.0000;17597.3000
2788.0000;17565.9900
2789.0000;17574.7600
2790.0000;17582.8800
2791.0000;17587.2300
2792.0000;17598.2700
2793.0000;17614.1800
2794.0000;17631.5200
2795.0000;17643.7100
2796.0000;17648.3500
2797.0000;17644.5500
2798.0000;17650.4000
2799.0000;17656.5400
2800.0000;17632.5500
2801.0000;17599.0600
2802.0000;17611.1200
2803.0000;17650.5500
2804.0000;17646.6600
2805.0000;17617.0400
2806.0000;17612.3700
2807.0000;17628.0900
2808.0000;17646.2100
2809.0000;17666.5900
2810.0000;17687.6800
2811.0000;17705.3200
2812.0000;17728.8300
2813.0000;17746.1400
2814.0000;17755.9600
2815.0000;17762.5300
2816.0000;17783.4800
2817.0000;17810.0400
2818.0000;17842.4300
2819.0000;17865.0800
2820.0000;17873.3500
2821.0000;17868.1700
2822.0000;17862.7200
2823.0000;17855.0900
2824.0000;17848.6100
2825.0000;17851.9300
2826.0000;17870.2000
2827.0000;17884.6600
2828.0000;17882.5000
2829.0000;17862.6100
2830.0000;17827.9500
2831.0000;17823.6400
2832.0000;17870.1100
2833.0000;17911.4300
2834.0000;17920.8400
2835.0000;17930.4200
2836.0000;17945.0700
2837.0000;17952.5600
2838.0000;17946.9500
2839.0000;17925.2900
2840.0000;17893.1500
2841.0000;17870.4100
2842.0000;17866.5900
2843.0000;17862.9700
2844.0000;17865.1000
2845.0000;17887.7800
2846.0000;17917.0100
2847.0000;17915.1400
2848.0000;17889.1300
2849.0000;17881.9100
2850.0000;17893.4300
2851.0000;17914.1200
2852.0000;17937.6200
2853.0000;17961.4500
2854.0000;17963.8100
2855.0000;17923.4600
2856.0000;17880.2000
2857.0000;17895.9200
2858.0000;17930.3800
2859.0000;17925.7800
2860.0000;17915.3800
2861.0000;17928.2200
2862.0000;17940.7500
2863.0000;17938.2100
2864.0000;17929.3800
2865.0000;17921.4600
2866.0000;17923.6800
2867.0000;17942.0700
2868.0000;17945.3700
2869.0000;17918.6800
2870.0000;17898.2800
2871.0000;17901.9700
2872.0000;17912.7200
2873.0000;17922.6600
2874.0000;17909.3100
2875.0000;17877.7300
2876.0000;17892.4800
2877.0000;17952.8100
2878.0000;17981.7000
2879.0000;17971.4100
2880.0000;17972.7900
2881.0000;17980.3100
2882.0000;17978.9300
2883.0000;17970.2100
2884.0000;17959.6800
2885.0000;17956.0400
2886.0000;17967.5700
2887.0000;17990.9300
2888.0000;18016.4000
2889.0000;18034.3700
2890.0000;18043.4100
2891.0000;18039.9600
2892.0000;18032.8100
2893.0000;18023.6500
2894.0000;18016.3100
2895.0000;18026.4000
2896.0000;18061.3200
2897.0000;18100.0000
2898.0000;18125.1800
2899.0000;18132.4200
2900.0000;18119.9100
2901.0000;18111.6200
2902.0000;18114.9600
2903.0000;18101.3600
2904.0000;18066.3100
2905.0000;18010.8600
2906.0000;17960.8500
2907.0000;17964.0600
2908.0000;18014.7300
2909.0000;18023.2400
2910.0000;18002.9000
2911.0000;18012.2700
2912.0000;18042.3100
2913.0000;18072.1700
2914.0000;18100.0500
2915.0000;18133.4700
2916.0000;18160.2200
2917.0000;18186.1100
2918.0000;18199.7700
2919.0000;18206.5000
2920.0000;18202.9400
2921.0000;18196.3900
2922.0000;18183.6300
2923.0000;18167.7100
2924.0000;18132.9900
2925.0000;18082.0500
2926.0000;18053.3900
2927.0000;18063.0500
2928.0000;18072.0300
2929.0000;18071.6800
2930.0000;18066.8900
2931.0000;18065.4900
2932.0000;18099.5600
2933.0000;18144.7700
2934.0000;18136.6200
2935.0000;18091.2900
2936.0000;18077.5600
2937.0000;18081.6000
2938.0000;18074.2600
2939.0000;18054.1700
2940.0000;18001.4600
2941.0000;17975.7900
2942.0000;18027.5100
2943.0000;18095.9100
2944.0000;18124.4400
2945.0000;18126.3700
2946.0000;18110.1100
2947.0000;18100.6400
2948.0000;18115.5400
2949.0000;18140.5600
2950.0000;18170.5600
2951.0000;18215.8800
2952.0000;18256.3900
2953.0000;18240.4900
2954.0000;18178.1900
2955.0000;18155.6700
2956.0000;18167.6300
2957.0000;18158.7400
2958.0000;18140.9400
2959.0000;18128.5700
2960.0000;18116.7300
2961.0000;18091.8800
2962.0000;18074.6900
2963.0000;18079.9000
2964.0000;18084.6000
2965.0000;18067.1800
2966.0000;18052.0200
2967.0000;18052.0900
2968.0000;18043.0800
2969.0000;18021.0600
2970.0000;18024.7700
2971.0000;18058.3700
2972.0000;18064.5900
2973.0000;18046.6000
2974.0000;18071.5700
2975.0000;18122.7900
2976.0000;18133.1300
2977.0000;18121.0700
2978.0000;18155.3500
2979.0000;18191.2300
2980.0000;18172.8200
2981.0000;18148.3900
2982.0000;18178.2600
2983.0000;18213.1600
2984.0000;18218.4500
2985.0000;18218.4700
2986.0000;18226.3400
2987.0000;18244.6100
2988.0000;18272.9300
2989.0000;18296.4100
2990.0000;18303.7500
2991.0000;18293.4900
2992.0000;18270.3500
2993.0000;18258.3400
2994.0000;18259.4600
2995.0000;18258.4300
2996.0000;18257.4600
2997.0000;18256.1800
2998.0000;18250.7800
2999.0000;18231.9900
3000.0000;18226.9700
3001.0000;18259.8400
3002.0000;18270.2600
3003.0000;18220.5000
3004.0000;18199.8900
3005.0000;18243.0900
3006.0000;18253.4600
3007.0000;18216.8800
3008.0000;18231.7800
3009.0000;18292.7400
3010.0000;18314.8000
3011.0000;18295.0700
3012.0000;18273.3300
3013.0000;18262.2300
3014.0000;18289.5000
3015.0000;18321.3300
3016.0000;18312.2400
3017.0000;18289.7800
3018.0000;18283.8300
3019.0000;18260.4700
3020.0000;18207.7500
3021.0000;18189.3300
3022.0000;18228.5000
3023.0000;18247.3200
3024.0000;18232.0100
3025.0000;18236.8700
3026.0000;18252.3600
3027.0000;18224.2600
3028.0000;18184.6800
3029.0000;18211.6000
3030.0000;18268.0100
3031.0000;18289.9200
3032.0000;18289.6200
3033.0000;18284.9800
3034.0000;18278.7100
3035.0000;18281.7100
3036.0000;18264.9900
3037.0000;18222.6900
3038.0000;18192.1200
3039.0000;18188.0700
3040.0000;18186.5700
3041.0000;18183.2100
3042.0000;18165.9800
3043.0000;18139.0500
3044.0000;18102.9300
3045.0000;18090.2300
3046.0000;18137.0400
3047.0000;18184.5900
3048.0000;18163.9000
3049.0000;18126.6400
3050.0000;18112.4000
3051.0000;18097.0700
3052.0000;18077.5500
3053.0000;18072.7800
3054.0000;18087.7800
3055.0000;18111.0800
3056.0000;18133.1800
3057.0000;18148.6000
3058.0000;18145.5100
3059.0000;18119.8400
3060.0000;18092.2500
3061.0000;18090.9300
3062.0000;18119.5000
3063.0000;18174.1500
3064.0000;18187.2000
3065.0000;18120.2100
3066.0000;18087.2000
3067.0000;18132.1400
3068.0000;18165.4600
3069.0000;18168.1900
3070.0000;18157.7100
3071.0000;18144.0000
3072.0000;18153.1800
3073.0000;18183.6000
3074.0000;18233.2400
3075.0000;18255.0000
3076.0000;18206.1400
3077.0000;18148.4500
3078.0000;18132.9000
3079.0000;18146.7400
3080.0000;18181.9600
3081.0000;18210.0000
3082.0000;18219.3400
3083.0000;18230.0500
3084.0000;18239.2100
3085.0000;18249.3200
3086.0000;18256.8700
3087.0000;18267.4200
3088.0000;18270.2100
3089.0000;18258.1000
3090.0000;18253.6200
3091.0000;18274.2400
3092.0000;18278.2700
3093.0000;18252.3800
3094.0000;18252.2700
3095.0000;18281.7100
3096.0000;18286.1800
3097.0000;18270.3600
3098.0000;18279.2100
3099.0000;18302.9800
3100.0000;18324.2200
3101.0000;18332.5700
3102.0000;18320.2800
3103.0000;18317.2300
3104.0000;18346.1600
3105.0000;18354.3900
3106.0000;18325.2500
3107.0000;18314.5600
3108.0000;18329.4300
3109.0000;18330.8100
3110.0000;18320.2400
3111.0000;18312.8400
3112.0000;18303.6300
3113.0000;18291.6600
3114.0000;18254.9200
3115.0000;18171.8200
3116.0000;18148.8100
3117.0000;18235.3400
3118.0000;18284.5800
3119.0000;18252.7800
3120.0000;18238.7600
3121.0000;18246.3900
3122.0000;18239.0300
3123.0000;18225.9400
3124.0000;18221.6800
3125.0000;18225.5400
3126.0000;18230.0600
3127.0000;18250.0800
3128.0000;18289.7200
3129.0000;18289.0900
3130.0000;18232.5100
3131.0000;18204.8400
3132.0000;18216.7900
3133.0000;18196.0600
3134.0000;18164.8800
3135.0000;18166.2800
3136.0000;18195.0000
3137.0000;18234.2500
3138.0000;18249.4400
3139.0000;18216.1600
3140.0000;18180.5300
3141.0000;18171.0700
3142.0000;18159.1600
3143.0000;18144.4600
3144.0000;18132.4200
3145.0000;18118.6300
3146.0000;18079.1500
3147.0000;18035.3600
3148.0000;17998.2800
3149.0000;17994.4000
3150.0000;18029.9700
3151.0000;18057.1000
3152.0000;18049.5600
3153.0000;18064.4400
3154.0000;18101.9900
3155.0000;18107.9500
3156.0000;18093.0900
3157.0000;18113.3100
3158.0000;18148.6200
3159.0000;18169.4700
3160.0000;18196.8800
3161.0000;18246.3200
3162.0000;18258.5200
3163.0000;18212.1700
3164.0000;18150.6800
3165.0000;18104.9000
3166.0000;18094.8300
3167.0000;18125.0900
3168.0000;18158.1700
3169.0000;18175.2000
3170.0000;18149.2800
3171.0000;18134.0300
3172.0000;18171.5000
3173.0000;18191.3400
3174.0000;18168.5700
3175.0000;18138.8300
3176.0000;18120.0800
3177.0000;18132.5800
3178.0000;18163.7700
3179.0000;18177.1300
3180.0000;18167.9100
3181.0000;18133.5800
3182.0000;18125.3800
3183.0000;18172.4500
3184.0000;18200.5500
3185.0000;18184.3900
3186.0000;18157.6200
3187.0000;18133.3500
3188.0000;18135.3400
3189.0000;18141.4500
3190.0000;18101.7400
3191.0000;18078.5700
3192.0000;18115.5400
3193.0000;18142.0300
3194.0000;18127.3800
3195.0000;18123.0300
3196.0000;18131.3200
3197.0000;18124.1100
3198.0000;18107.1500
3199.0000;18099.3200
3200.0000;18086.9900
3201.0000;18055.1200
3202.0000;18033.4600
3203.0000;18037.9400
3204.0000;18051.6800
3205.0000;18063.9800
3206.0000;18056.4200
3207.0000;18036.1200
3208.0000;18033.2500
3209.0000;18036.2200
3210.0000;18024.9600
3211.0000;18018.2300
3212.0000;18026.1800
3213.0000;18012.2300
3214.0000;17974.2600
3215.0000;17970.1500
3216.0000;17999.2200
3217.0000;18009.6900
3218.0000;18007.3100
3219.0000;18007.8400
3220.0000;18007.7000
3221.0000;18009.3900
3222.0000;17973.4300
3223.0000;17908.0400
3224.0000;17962.7100
3225.0000;18100.3500
3226.0000;18102.1100
3227.0000;18020.0400
3228.0000;18010.4700
3229.0000;18032.5200
3230.0000;18060.8900
3231.0000;18056.0100
3232.0000;18002.5200
3233.0000;17964.7300
3234.0000;17953.3500
3235.0000;17926.8400
3236.0000;17899.0700
3237.0000;17880.0500
3238.0000;17861.1300
3239.0000;17828.2000
3240.0000;17806.7600
3241.0000;17811.3200
3242.0000;17847.1100
3243.0000;17898.1900
3244.0000;17917.3800
3245.0000;17910.3700
3246.0000;17922.2100
3247.0000;17923.3600
3248.0000;17900.6700
3249.0000;17891.6700
3250.0000;17912.7900
3251.0000;17944.2300
3252.0000;17974.9400
3253.0000;18008.0500
3254.0000;18012.1400
3255.0000;17960.7100
3256.0000;17914.5500
3257.0000;17931.2600
3258.0000;17963.9000
3259.0000;17989.4200
3260.0000;18003.2700
3261.0000;17994.2900
3262.0000;17959.8700
3263.0000;17929.2000
3264.0000;17944.2000
3265.0000;17966.1000
3266.0000;17963.2000
3267.0000;17952.2200
3268.0000;17941.1800
3269.0000;17945.6100
3270.0000;17958.9300
3271.0000;17950.3800
3272.0000;17945.2000
3273.0000;17973.3500
3274.0000;17990.8500
3275.0000;17973.4300
3276.0000;17945.5800
3277.0000;17914.2600
3278.0000;17866.1200
3279.0000;17827.4000
3280.0000;17813.7400
3281.0000;17835.7600
3282.0000;17881.0000
3283.0000;17891.5700
3284.0000;17849.8600
3285.0000;17846.0600
3286.0000;17871.5300
3287.0000;17847.0700
3288.0000;17802.4200
3289.0000;17787.4600
3290.0000;17755.3800
3291.0000;17686.6800
3292.0000;17686.3700
3293.0000;17761.2300
3294.0000;17774.9500
3295.0000;17731.0400
3296.0000;17691.0100
3297.0000;17664.9100
3298.0000;17667.9600
3299.0000;17664.3300
3300.0000;17639.6700
3301.0000;17625.2500
3302.0000;17626.7800
3303.0000;17627.0200
3304.0000;17626.9900
3305.0000;17621.8300
3306.0000;17625.0200
3307.0000;17642.2000
3308.0000;17644.2100
3309.0000;17627.9100
3310.0000;17626.0400
3311.0000;17629.2000
3312.0000;17609.7600
3313.0000;17596.0100
3314.0000;17608.2200
3315.0000;17627.3300
3316.0000;17636.8700
3317.0000;17606.3000
3318.0000;17550.3700
3319.0000;17521.9300
3320.0000;17516.5000
3321.0000;17513.7100
3322.0000;17511.0500
3323.0000;17503.6900
3324.0000;17510.3900
3325.0000;17533.6600
3326.0000;17569.2200
3327.0000;17590.6100
3328.0000;17569.0900
3329.0000;17542.3400
3330.0000;17541.4100
3331.0000;17544.4300
3332.0000;17549.5200
3333.0000;17565.9800
3334.0000;17580.2100
3335.0000;17572.0200
3336.0000;17562.2800
3337.0000;17569.6900
3338.0000;17528.5100
3339.0000;17446.7500
3340.0000;17439.8000
3341.0000;17482.0100
3342.0000;17450.4700
3343.0000;17431.0300
3344.0000;17487.1200
3345.0000;17548.7600
3346.0000;17579.6500
3347.0000;17594.2400
3348.0000;17596.1000
3349.0000;17625.9000
3350.0000;17650.3100
3351.0000;17643.7100
3352.0000;17656.8400
3353.0000;17701.2800
3354.0000;17708.4100
3355.0000;17684.3500
3356.0000;17697.1800
3357.0000;17713.0900
3358.0000;17698.6400
3359.0000;17684.8100
3360.0000;17686.5600
3361.0000;17695.7400
3362.0000;17703.0200
3363.0000;17689.5200
3364.0000;17663.7400
3365.0000;17639.8300
3366.0000;17634.9600
3367.0000;17650.1000
3368.0000;17631.9500
3369.0000;17586.2400
3370.0000;17553.1600
3371.0000;17536.2200
3372.0000;17525.1900
3373.0000;17531.3200
3374.0000;17553.5500
3375.0000;17593.4900
3376.0000;17630.6200
3377.0000;17639.3000
3378.0000;17609.5500
3379.0000;17552.0600
3380.0000;17528.9900
3381.0000;17566.4000
3382.0000;17576.6200
3383.0000;17556.7700
3384.0000;17544.6500
3385.0000;17544.8900
3386.0000;17563.1800
3387.0000;17559.4800
3388.0000;17525.4600
3389.0000;17520.8400
3390.0000;17543.0800
3391.0000;17559.0700
3392.0000;17558.3400
3393.0000;17534.0000
3394.0000;17491.1400
3395.0000;17445.4300
3396.0000;17422.4800
3397.0000;17429.0600
3398.0000;17440.2900
3399.0000;17446.9200
3400.0000;17433.8300
3401.0000;17425.0000
3402.0000;17431.1000
3403.0000;17455.5600
3404.0000;17477.1100
3405.0000;17462.8200
3406.0000;17448.6400
3407.0000;17459.9600
3408.0000;17440.9900
3409.0000;17398.8200
3410.0000;17394.6500
3411.0000;17415.7400
3412.0000;17428.7200
3413.0000;17425.7600
3414.0000;17405.9600
3415.0000;17414.7900
3416.0000;17447.6000
3417.0000;17459.6200
3418.0000;17462.3200
3419.0000;17473.5500
3420.0000;17470.4400
3421.0000;17451.7100
3422.0000;17451.5800
3423.0000;17460.1300
3424.0000;17444.7700
3425.0000;17421.9500
3426.0000;17406.9400
3427.0000;17411.1500
3428.0000;17425.1900
3429.0000;17387.8800
3430.0000;17348.2100
3431.0000;17383.8600
3432.0000;17404.3700
3433.0000;17363.9000
3434.0000;17349.5900
3435.0000;17367.9700
3436.0000;17380.3700
3437.0000;17376.5700
3438.0000;17347.1500
3439.0000;17331.3300
3440.0000;17344.6200
3441.0000;17364.5100
3442.0000;17364.7500
3443.0000;17303.1000
3444.0000;17258.7000
3445.0000;17288.1300
3446.0000;17313.5200
3447.0000;17314.8100
3448.0000;17313.9100
3449.0000;17303.6600
3450.0000;17282.3300
3451.0000;17281.0500
3452.0000;17306.4200
3453.0000;17299.2500
3454.0000;17278.4000
3455.0000;17311.9800
3456.0000;17328.4000
3457.0000;17282.1900
3458.0000;17288.4200
3459.0000;17345.9300
3460.0000;17317.1300
3461.0000;17259.7800
3462.0000;17266.8000
3463.0000;17276.0700
3464.0000;17259.3600
3465.0000;17217.6800
3466.0000;17177.6000
3467.0000;17180.1500
3468.0000;17188.3000
3469.0000;17164.3700
3470.0000;17129.5500
3471.0000;17105.0700
3472.0000;17123.6000
3473.0000;17159.7400
3474.0000;17165.7000
3475.0000;17170.7100
3476.0000;17179.4200
3477.0000;17161.3100
3478.0000;17120.1300
3479.0000;17072.9000
3480.0000;17030.1500
3481.0000;17002.1900
3482.0000;17029.1300
3483.0000;17085.2900
3484.0000;17066.4100
3485.0000;17033.9900
3486.0000;17062.0600
3487.0000;17086.2200
3488.0000;17078.4400
3489.0000;17026.4900
3490.0000;16988.2300
3491.0000;17051.7100
3492.0000;17097.7800
3493.0000;17065.4000
3494.0000;17057.5500
3495.0000;17077.8000
3496.0000;17099.5000
3497.0000;17097.9000
3498.0000;17058.4400
3499.0000;17008.8800
3500.0000;16976.8200
3501.0000;16986.1600
3502.0000;17001.3300
3503.0000;16968.6400
3504.0000;16936.3200
3505.0000;16930.7800
3506.0000;16957.5400
3507.0000;16992.6300
3508.0000;16989.1000
3509.0000;16985.6600
3510.0000;16998.3700
3511.0000;16980.8100
3512.0000;16952.6300
3513.0000;16968.0200
3514.0000;16992.7700
3515.0000;16995.7600
3516.0000;16967.8300
3517.0000;16924.4500
3518.0000;16913.7100
3519.0000;16919.6000
3520.0000;16915.0100
3521.0000;16885.8700
3522.0000;16846.7000
3523.0000;16853.3700
3524.0000;16884.0600
3525.0000;16891.8300
3526.0000;16904.2900
3527.0000;16919.7600
3528.0000;16907.7400
3529.0000;16875.8300
3530.0000;16848.2400
3531.0000;16838.3800
3532.0000;16849.6100
3533.0000;16852.5600
3534.0000;16842.3400
3535.0000;16820.3900
3536.0000;16804.4800
3537.0000;16807.9500
3538.0000;16826.8000
3539.0000;16843.2000
3540.0000;16816.9800
3541.0000;16802.0000
3542.0000;16836.2900
3543.0000;16828.3000
3544.0000;16780.2400
3545.0000;16767.3400
3546.0000;16768.8200
3547.0000;16761.1200
3548.0000;16742.2800
3549.0000;16714.9500
3550.0000;16678.5500
3551.0000;16661.5400
3552.0000;16679.9600
3553.0000;16685.0400
3554.0000;16665.4900
3555.0000;16657.1100
3556.0000;16655.4600
3557.0000;16652.3100
3558.0000;16627.5500
3559.0000;16582.4500
3560.0000;16546.3100
3561.0000;16527.7700
3562.0000;16515.3000
3563.0000;16526.4200
3564.0000;16555.3500
3565.0000;16575.7100
3566.0000;16571.4800
3567.0000;16539.7500
3568.0000;16501.8800
3569.0000;16477.2400
3570.0000;16461.1900
3571.0000;16467.1000
3572.0000;16494.9300
3573.0000;16513.1200
3574.0000;16497.9300
3575.0000;16452.9300
3576.0000;16405.7500
3577.0000;16397.9100
3578.0000;16394.1600
3579.0000;16376.2600
3580.0000;16359.7500
3581.0000;16353.2400
3582.0000;16358.8800
3583.0000;16363.0900
3584.0000;16353.1000
3585.0000;16308.3300
3586.0000;16283.1800
3587.0000;16360.7600
3588.0000;16440.8400
3589.0000;16451.3800
3590.0000;16427.6000
3591.0000;16390.3500
3592.0000;16390.9900
3593.0000;16383.6300
3594.0000;16356.5900
3595.0000;16362.6200
3596.0000;16398.6400
3597.0000;16437.8600
3598.0000;16455.2400
3599.0000;16442.3800
3600.0000;16444.8200
3601.0000;16451.2100
3602.0000;16439.0100
3603.0000;16438.1300
3604.0000;16453.3800
3605.0000;16443.7300
3606.0000;16417.5800
3607.0000;16399.9700
3608.0000;16377.2400
3609.0000;16355.2800
3610.0000;16360.2800
3611.0000;16380.5300
3612.0000;16387.5000
3613.0000;16359.3700
3614.0000;16307.0700
3615.0000;16289.2400
3616.0000;16296.4200
3617.0000;16297.6300
3618.0000;16312.4200
3619.0000;16332.0700
3620.0000;16325.6400
3621.0000;16315.7800
3622.0000;16329.8700
3623.0000;16355.5800
3624.0000;16371.5000
3625.0000;16339.4100
3626.0000;16294.4200
3627.0000;16276.9200
3628.0000;16293.4400
3629.0000;16327.4000
3630.0000;16323.3300
3631.0000;16303.3700
3632.0000;16288.3900
3633.0000;16280.4000
3634.0000;16278.1900
3635.0000;16267.8800
3636.0000;16255.1600
3637.0000;16243.7400
3638.0000;16231.2900
3639.0000;16225.4700
3640.0000;16231.6700
3641.0000;16221.7200
3642.0000;16194.3400
3643.0000;16213.4800
3644.0000;16230.0900
3645.0000;16173.0700
3646.0000;16145.4500
3647.0000;16164.8300
3648.0000;16128.8800
3649.0000;16098.9700
3650.0000;16131.7600
3651.0000;16143.0700
3652.0000;16121.6200
3653.0000;16114.7700
3654.0000;16110.8800
3655.0000;16102.5200
3656.0000;16082.8300
3657.0000;16062.4700
3658.0000;16060.3100
3659.0000;16051.0200
3660.0000;16024.9000
3661.0000;16017.4800
3662.0000;16026.8500
3663.0000;16034.4300
3664.0000;16014.1200
3665.0000;15964.3600
3666.0000;15914.9400
3667.0000;15888.3800
3668.0000;15892.7500
3669.0000;15909.1800
3670.0000;15925.9500
3671.0000;15936.1700
3672.0000;15943.0700
3673.0000;15949.1900
3674.0000;15928.4300
3675.0000;15895.6300
3676.0000;15886.1100
3677.0000;15894.3600
3678.0000;15907.4000
3679.0000;15900.3400
3680.0000;15860.8000
3681.0000;15790.3900
3682.0000;15777.8200
3683.0000;15830.9800
3684.0000;15824.4000
3685.0000;15791.0000
3686.0000;15771.1100
3687.0000;15785.6600
3688.0000;15808.8400
3689.0000;15762.9800
3690.0000;15730.1700
3691.0000;15755.6000
3692.0000;15759.5100
3693.0000;15757.2100
3694.0000;15779.2900
3695.0000;15790.6600
3696.0000;15777.5000
3697.0000;15745.9900
3698.0000;15735.6300
3699.0000;15774.4400
3700.0000;15794.8700
3701.0000;15784.1100
3702.0000;15765.3000
3703.0000;15777.2500
3704.0000;15826.0800
3705.0000;15815.0300
3706.0000;15767.9400
3707.0000;15747.8700
3708.0000;15736.5200
3709.0000;15730.5400
3710.0000;15714.4400
3711.0000;15697.5700
3712.0000;15689.1600
3713.0000;15726.3000
3714.0000;15771.1900
3715.0000;15746.0600
3716.0000;15721.2800
3717.0000;15728.0600
3718.0000;15721.2200
3719.0000;15691.8500
3720.0000;15639.2600
3721.0000;15610.8800
3722.0000;15609.3400
3723.0000;15572.6900
3724.0000;15563.0900
3725.0000;15598.5500
3726.0000;15600.5200
3727.0000;15580.4500
3728.0000;15574.1300
3729.0000;15555.4300
3730.0000;15531.2600
3731.0000;15531.5800
3732.0000;15538.5200
3733.0000;15530.8100
3734.0000;15500.9100
3735.0000;15482.3800
3736.0000;15525.8800
3737.0000;15518.4200
3738.0000;15440.5700
3739.0000;15409.8200
3740.0000;15414.9100
3741.0000;15430.7300
3742.0000;15450.6200
3743.0000;15450.0900
3744.0000;15405.2400
3745.0000;15366.2800
3746.0000;15356.1800
3747.0000;15317.0200
3748.0000;15290.7000
3749.0000;15308.7500
3750.0000;15349.4900
3751.0000;15381.4400
3752.0000;15360.9600
3753.0000;15346.6100
3754.0000;15357.9900
3755.0000;15327.1200
3756.0000;15280.7600
3757.0000;15252.6700
3758.0000;15245.5700
3759.0000;15255.8500
3760.0000;15254.1400
3761.0000;15263.1700
3762.0000;15287.8000
3763.0000;15322.4700
3764.0000;15348.7000
3765.0000;15355.9700
3766.0000;15401.1400
3767.0000;15446.4000
3768.0000;15414.2100
3769.0000;15394.7600
3770.0000;15422.7100
3771.0000;15433.3200
3772.0000;15423.7100
3773.0000;15399.7000
3774.0000;15395.6800
3775.0000;15411.0200
3776.0000;15424.6000
3777.0000;15411.0600
3778.0000;15373.9800
3779.0000;15364.0900
3780.0000;15360.2700
3781.0000;15341.8400
3782.0000;15312.2900
3783.0000;15296.6600
3784.0000;15320.5300
3785.0000;15330.4300
3786.0000;15319.2300
3787.0000;15335.0100
3788.0000;15359.8100
3789.0000;15371.9200
3790.0000;15333.5300
3791.0000;15289.6300
3792.0000;15303.4300
3793.0000;15280.9800
3794.0000;15232.4800
3795.0000;15230.9600
3796.0000;15233.7200
3797.0000;15217.7100
3798.0000;15194.9700
3799.0000;15177.1800
3800.0000;15171.3800
3801.0000;15135.4200
3802.0000;15093.9500
3803.0000;15093.1800
3804.0000;15090.6400
3805.0000;15070.7900
3806.0000;15030.0900
3807.0000;15041.5600
3808.0000;15125.5000
3809.0000;15134.9300
3810.0000;15094.8300
3811.0000;15076.0500
3812.0000;15030.9600
3813.0000;14982.3400
3814.0000;14973.9000
3815.0000;14991.7100
3816.0000;15012.9500
3817.0000;15011.5000
3818.0000;14992.0600
3819.0000;14966.8200
3820.0000;14936.0300
3821.0000;14901.1600
3822.0000;14860.6800
3823.0000;14830.2300
3824.0000;14818.4200
3825.0000;14807.4500
3826.0000;14793.3700
3827.0000;14771.4800
3828.0000;14746.7300
3829.0000;14727.3500
3830.0000;14714.5800
3831.0000;14688.7300
3832.0000;14666.2400
3833.0000;14665.1000
3834.0000;14684.4400
3835.0000;14694.0900
3836.0000;14634.3200
3837.0000;14581.5300
3838.0000;14580.8300
3839.0000;14589.2700
3840.0000;14594.0200
3841.0000;14576.9200
3842.0000;14552.5400
3843.0000;14539.2800
3844.0000;14551.6700
3845.0000;14574.2800
3846.0000;14590.0400
3847.0000;14581.8200
3848.0000;14584.6700
3849.0000;14611.4000
3850.0000;14636.6900
3851.0000;14665.5300
3852.0000;14697.4200
3853.0000;14729.1000
3854.0000;14737.5900
3855.0000;14714.1600
3856.0000;14679.5600
3857.0000;14653.2100
3858.0000;14648.0500
3859.0000;14656.2500
3860.0000;14656.4000
3861.0000;14604.0600
3862.0000;14570.3900
3863.0000;14591.0400
3864.0000;14599.2100
3865.0000;14590.7900
3866.0000;14570.2400
3867.0000;14597.6300
3868.0000;14622.1500
3869.0000;14567.4600
3870.0000;14514.3600
3871.0000;14497.4800
3872.0000;14518.8700
3873.0000;14508.7000
3874.0000;14461.6800
3875.0000;14466.7600
3876.0000;14451.3300
3877.0000;14390.6800
3878.0000;14363.1300
3879.0000;14376.2100
3880.0000;14407.3100
3881.0000;14387.2100
3882.0000;14353.3700
3883.0000;14370.3700
3884.0000;14349.3300
3885.0000;14316.2900
3886.0000;14353.6800
3887.0000;14361.1400
3888.0000;14315.8300
3889.0000;14270.9500
3890.0000;14258.2100
3891.0000;14276.5000
3892.0000;14244.2100
3893.0000;14199.8600
3894.0000;14179.9600
3895.0000;14186.9300
3896.0000;14197.6600
3897.0000;14180.0900
3898.0000;14164.3400
3899.0000;14149.2500
3900.0000;14125.9700
3901.0000;14104.8600
3902.0000;14088.6500
3903.0000;14064.8100
3904.0000;14062.4600
3905.0000;14082.0300
3906.0000;14090.4000
3907.0000;14094.3100
3908.0000;14092.7200
3909.0000;14078.4400
3910.0000;14057.9100
3911.0000;14041.6600
3912.0000;14033.9600
3913.0000;14019.3100
3914.0000;13987.1800
3915.0000;13998.7600
3916.0000;14020.5200
3917.0000;13993.3700
3918.0000;13965.7500
3919.0000;13968.1800
3920.0000;14017.5100
3921.0000;14002.5000
3922.0000;13947.7600
3923.0000;13983.7200
3924.0000;14035.1700
3925.0000;14065.6300
3926.0000;14092.0700
3927.0000;14094.2700
3928.0000;14074.2300
3929.0000;14057.9300
3930.0000;14033.9100
3931.0000;14006.1200
3932.0000;14006.2900
3933.0000;14002.0500
3934.0000;13969.0900
3935.0000;13973.5900
3936.0000;13991.2500
3937.0000;13981.1600
3938.0000;13943.3800
3939.0000;13905.5100
3940.0000;13903.1600
3941.0000;13897.2100
3942.0000;13891.3700
3943.0000;13896.5000
3944.0000;13895.4800
3945.0000;13874.4000
3946.0000;13821.8200
3947.0000;13803.9600
3948.0000;13821.7600
3949.0000;13805.7800
3950.0000;13773.0600
3951.0000;13741.5200
3952.0000;13738.7700
3953.0000;13704.7700
3954.0000;13644.4300
3955.0000;13664.2600
3956.0000;13679.7500
3957.0000;13644.7200
3958.0000;13629.2300
3959.0000;13616.6800
3960.0000;13597.5900
3961.0000;13577.8200
3962.0000;13562.6400
3963.0000;13548.4600
3964.0000;13505.8000
3965.0000;13458.5800
3966.0000;13431.4500
3967.0000;13404.3100
3968.0000;13374.1700
3969.0000;13336.7400
3970.0000;13314.0800
3971.0000;13306.0100
3972.0000;13297.9000
3973.0000;13322.7600
3974.0000;13336.1200
3975.0000;13281.4100
3976.0000;13264.2300
3977.0000;13283.2800
3978.0000;13286.6200
3979.0000;13276.5300
3980.0000;13254.2900
3981.0000;13229.4900
3982.0000;13220.0800
3983.0000;13215.0600
3984.0000;13179.5600
3985.0000;13157.0500
3986.0000;13136.6300
3987.0000;13063.0000
3988.0000;13072.9000
3989.0000;13151.5300
3990.0000;13145.7500
3991.0000;13135.1800
3992.0000;13141.7100
3993.0000;13154.2700
3994.0000;13133.8400
3995.0000;13098.7200
3996.0000;13125.8300
3997.0000;13149.6900
3998.0000;13150.2500
3999.0000;13163.1900
4000.0000;13173.8800
4001.0000;13177.9700
4002.0000;13183.2800
4003.0000;13176.7600
4004.0000;13160.1200
4005.0000;13148.8200
4006.0000;13133.6500
4007.0000;13121.5500
4008.0000;13136.8900
4009.0000;13145.5800
4010.0000;13130.9100
4011.0000;13110.0200
4012.0000;13069.7700
4013.0000;13033.0900
4014.0000;13051.7600
4015.0000;13048.5400
4016.0000;13015.8900
4017.0000;13057.9700
4018.0000;13081.8800
4019.0000;13057.2100
4020.0000;13054.3500
4021.0000;13067.1600
4022.0000;13069.5400
4023.0000;13003.6800
4024.0000;12929.4800
4025.0000;12889.3300
4026.0000;12867.4700
4027.0000;12837.8300
4028.0000;12799.9600
4029.0000;12787.3100
4030.0000;12774.5500
4031.0000;12756.1000
4032.0000;12745.9300
4033.0000;12722.1500
4034.0000;12695.5800
4035.0000;12701.8400
4036.0000;12701.9700
4037.0000;12687.4000
4038.0000;12676.3600
4039.0000;12678.3200
4040.0000;12687.7500
4041.0000;12684.1500
4042.0000;12667.1500
4043.0000;12653.9200
4044.0000;12671.8400
4045.0000;12671.1200
4046.0000;12649.9100
4047.0000;12636.8800
4048.0000;12632.7800
4049.0000;12631.5300
4050.0000;12619.4100
4051.0000;12614.4100
4052.0000;12617.3200
4053.0000;12618.2100
4054.0000;12588.8700
4055.0000;12559.5200
4056.0000;12573.1800
4057.0000;12621.3400
4058.0000;12629.2500
4059.0000;12539.8600
4060.0000;12494.9700
4061.0000;12512.5800
4062.0000;12558.0100
4063.0000;12553.8600
4064.0000;12536.7500
4065.0000;12551.9900
4066.0000;12586.1100
4067.0000;12580.1700
4068.0000;12524.6600
4069.0000;12567.8000
4070.0000;12609.8300
4071.0000;12585.5100
4072.0000;12564.3500
4073.0000;12544.1600
4074.0000;12516.6300
4075.0000;12431.4800
4076.0000;12384.3600
4077.0000;12399.8400
4078.0000;12395.0100
4079.0000;12387.2000
4080.0000;12369.2200
4081.0000;12328.6500
4082.0000;12243.5000
4083.0000;12168.2500
4084.0000;12178.7400
4085.0000;12157.1300
4086.0000;12108.7700
4087.0000;12082.7500
4088.0000;12053.6500
4089.0000;12044.5000
4090.0000;12068.7900
4091.0000;12092.8400
4092.0000;12096.5000
4093.0000;12077.2600
4094.0000;12084.3100
4095.0000;12101.2300
4096.0000;12111.4400
4097.0000;12132.7300
4098.0000;12147.2100
4099.0000;12130.6600
4100.0000;12050.2700
4101.0000;12007.2800
4102.0000;12023.1200
4103.0000;11991.5100
4104.0000;11969.6500
4105.0000;11947.3300
4106.0000;11873.6300
4107.0000;11835.5000
4108.0000;11809.0300
4109.0000;11721.6800
4110.0000;11670.6900
4111.0000;11645.8200
4112.0000;11600.7200
4113.0000;11521.2300
4114.0000;11421.9400
4115.0000;11321.7100
4116.0000;11161.0400
4117.0000;11057.5300
4118.0000;11030.4000
4119.0000;10871.8200
4120.0000;10743.4100
4121.0000;10685.6500
4122.0000;10584.6100
4123.0000;10456.7000
4124.0000;10344.2500
4125.0000;10284.4400
4126.0000;10201.3400
4127.0000;10102.5300
4128.0000;10010.2800
4129.0000;9867.6620
4130.0000;9719.5220
4131.0000;9609.1110
4132.0000;9496.9870
4133.0000;9390.8190
4134.0000;9284.3300
4135.0000;9170.8160
4136.0000;9032.9760
4137.0000;8876.5220
4138.0000;8719.8830
4139.0000;8575.4870
4140.0000;8439.1580
4141.0000;8271.6250
4142.0000;8129.0790
4143.0000;8004.6330
4144.0000;7854.4100
4145.0000;7705.1410
4146.0000;7576.7260
4147.0000;7466.5520
4148.0000;7340.5470
4149.0000;7225.1530
4150.0000;7125.7220
4151.0000;7007.7830
4152.0000;6895.2750
4153.0000;6807.2550
4154.0000;6732.5850
4155.0000;6646.8220
4156.0000;6553.1590
4157.0000;6461.7100
4158.0000;6376.4920
4159.0000;6270.8150
4160.0000;6139.5490
4161.0000;6088.7040
4162.0000;6040.1040
4163.0000;5954.3820
4164.0000;5898.0660
4165.0000;5858.9900
4166.0000;5817.3480
4167.0000;5740.6790
4168.0000;5671.6520
4169.0000;5627.6950
4170.0000;5605.7850
4171.0000;5591.4540
4172.0000;5583.0060
4173.0000;5571.6040
4174.0000;5554.8070
4175.0000;5522.2090
4176.0000;5483.1010
4177.0000;5460.4100
4178.0000;5455.0950
4179.0000;5451.0360
4180.0000;5421.8410
4181.0000;5361.2070
4182.0000;5322.4680
4183.0000;5333.5050
4184.0000;5288.7570
4185.0000;5238.0950
4186.0000;5229.0370
4187.0000;5272.5140
4188.0000;5301.4140
4189.0000;5301.4060
4190.0000;5307.9870
4191.0000;5322.5850
4192.0000;5340.8660
4193.0000;5350.7240
4194.0000;5327.8340
4195.0000;5307.2330
4196.0000;5306.9580
4197.0000;5290.1360
4198.0000;5269.9980
4199.0000;5253.3670
4200.0000;5241.3410
4201.0000;5243.8670
4202.0000;5236.3480
4203.0000;5204.7060
4204.0000;5205.2750
4205.0000;5232.5090
4206.0000;5256.8070
4207.0000;5236.6050
4208.0000;5247.3070
4209.0000;5274.6390
4210.0000;5258.8150
4211.0000;5248.1970
4212.0000;5245.0890
4213.0000;5243.1850
4214.0000;5238.4060
4215.0000;5207.1000
4216.0000;5164.4450
4217.0000;5162.0300
4218.0000;5122.9480
4219.0000;5077.1890
4220.0000;5087.5440
4221.0000;5116.5900
4222.0000;5134.5300
4223.0000;5119.0010
4224.0000;5088.7830
4225.0000;5047.6490
4226.0000;5038.0480
4227.0000;5095.0910
4228.0000;5085.7260
4229.0000;5047.2460
4230.0000;5047.0320
4231.0000;5029.9160
4232.0000;5047.3520
4233.0000;5090.7420
4234.0000;5085.7960
4235.0000;5063.3090
4236.0000;4546.7980
4237.0000;3221.0740
4238.0000;1713.4890
