Raman Shift ; Dark Subtracted #1
-2.0000;3154.7170
-1.0000;2910.3500
0.0000;2562.2710
1.0000;2136.6370
2.0000;1663.2960
3.0000;1204.0290
4.0000;830.0312
5.0000;515.6105
6.0000;303.8562
7.0000;232.5103
8.0000;183.4385
9.0000;155.7926
10.0000;175.0675
11.0000;170.0606
12.0000;113.6142
13.0000;55.1631
14.0000;12.8450
15.0000;-0.2984
16.0000;8.7895
17.0000;18.2563
18.0000;18.2267
19.0000;19.0883
20.0000;19.8831
21.0000;20.0955
22.0000;20.0052
23.0000;19.7151
24.0000;19.6927
25.0000;18.9904
26.0000;16.6959
27.0000;11.1970
28.0000;5.3337
29.0000;1.9557
30.0000;3.5752
31.0000;8.4897
32.0000;12.9315
33.0000;13.3967
34.0000;12.0401
35.0000;10.9293
36.0000;12.8194
37.0000;15.1506
38.0000;16.2091
39.0000;13.2741
40.0000;8.4886
41.0000;5.0904
42.0000;6.4339
43.0000;10.9245
44.0000;15.3169
45.0000;16.1503
46.0000;14.8123
47.0000;13.5445
48.0000;15.2242
49.0000;18.1489
50.0000;20.3451
51.0000;20.2785
52.0000;18.0417
53.0000;14.8759
54.0000;11.3636
55.0000;8.2049
56.0000;6.6220
57.0000;6.8806
58.0000;9.8607
59.0000;14.9491
60.0000;22.2689
61.0000;30.5159
62.0000;36.9189
63.0000;39.1675
64.0000;36.4346
65.0000;32.7251
66.0000;31.9855
67.0000;33.9684
68.0000;38.4472
69.0000;45.6266
70.0000;54.9448
71.0000;64.6696
72.0000;73.5480
73.0000;80.0712
74.0000;86.0158
75.0000;94.9458
76.0000;104.5553
77.0000;114.7245
78.0000;127.7640
79.0000;141.1759
80.0000;153.1150
81.0000;164.2298
82.0000;171.9300
83.0000;178.4950
84.0000;189.2526
85.0000;202.1608
86.0000;214.4192
87.0000;225.9614
88.0000;234.4534
89.0000;242.2936
90.0000;254.9618
91.0000;270.5583
92.0000;284.9681
93.0000;296.7875
94.0000;303.3207
95.0000;309.2093
96.0000;322.5956
97.0000;342.3203
98.0000;362.6873
99.0000;382.2838
100.0000;397.8764
101.0000;408.4666
102.0000;419.2504
103.0000;427.7663
104.0000;434.3325
105.0000;443.6591
106.0000;454.7163
107.0000;466.1078
108.0000;480.7853
109.0000;496.1264
110.0000;509.7021
111.0000;522.3335
112.0000;531.7101
113.0000;537.9797
114.0000;546.8804
115.0000;557.4179
116.0000;566.6285
117.0000;574.6103
118.0000;579.9370
119.0000;583.4485
120.0000;589.2023
121.0000;596.8485
122.0000;603.4151
123.0000;607.6703
124.0000;608.4454
125.0000;607.8688
126.0000;610.2537
127.0000;615.8927
128.0000;622.0354
129.0000;626.8833
130.0000;629.5211
131.0000;630.1990
132.0000;630.0525
133.0000;628.7919
134.0000;627.6366
135.0000;629.2142
136.0000;633.9583
137.0000;639.1558
138.0000;641.7936
139.0000;640.8942
140.0000;638.8065
141.0000;638.3242
142.0000;639.9432
143.0000;642.4122
144.0000;645.4750
145.0000;648.6197
146.0000;650.8761
147.0000;651.6453
148.0000;650.2764
149.0000;647.4432
150.0000;644.2714
151.0000;640.9438
152.0000;638.9973
153.0000;639.7595
154.0000;643.9951
155.0000;648.7111
156.0000;650.9172
157.0000;649.6498
158.0000;646.8604
159.0000;644.9983
160.0000;644.1898
161.0000;643.6223
162.0000;642.4153
163.0000;640.8483
164.0000;639.5964
165.0000;639.0199
166.0000;639.3954
167.0000;640.3527
168.0000;641.4499
169.0000;642.5285
170.0000;643.2377
171.0000;642.7065
172.0000;640.9566
173.0000;639.9319
174.0000;641.3124
175.0000;645.3497
176.0000;650.6608
177.0000;657.6674
178.0000;664.5757
179.0000;668.6748
180.0000;666.9630
181.0000;658.9232
182.0000;650.6365
183.0000;648.0945
184.0000;651.7104
185.0000;656.9635
186.0000;659.3275
187.0000;659.4002
188.0000;659.6494
189.0000;663.5918
190.0000;669.1626
191.0000;672.6840
192.0000;670.2548
193.0000;662.6785
194.0000;654.1915
195.0000;649.5161
196.0000;648.4717
197.0000;649.1585
198.0000;648.5704
199.0000;648.3923
200.0000;649.1133
201.0000;651.5080
202.0000;654.6603
203.0000;656.1431
204.0000;652.5921
205.0000;646.1740
206.0000;642.0804
207.0000;645.8232
208.0000;654.7176
209.0000;662.5984
210.0000;664.6152
211.0000;661.6136
212.0000;655.9783
213.0000;648.9526
214.0000;642.1103
215.0000;638.3000
216.0000;640.1741
217.0000;647.0453
218.0000;654.3942
219.0000;659.9121
220.0000;663.1516
221.0000;663.9304
222.0000;661.9031
223.0000;657.6161
224.0000;654.5895
225.0000;655.7355
226.0000;658.7993
227.0000;661.4943
228.0000;661.7147
229.0000;661.0352
230.0000;660.8978
231.0000;661.8866
232.0000;663.9023
233.0000;667.3416
234.0000;672.9771
235.0000;678.0312
236.0000;680.1318
237.0000;677.6608
238.0000;672.5591
239.0000;668.3607
240.0000;666.5969
241.0000;666.7319
242.0000;668.4198
243.0000;672.1316
244.0000;675.7374
245.0000;676.1057
246.0000;671.7921
247.0000;666.7486
248.0000;665.7889
249.0000;670.3101
250.0000;675.2644
251.0000;675.4635
252.0000;669.5558
253.0000;663.2874
254.0000;662.5648
255.0000;668.2870
256.0000;675.4237
257.0000;678.8850
258.0000;678.1252
259.0000;675.9619
260.0000;675.6820
261.0000;676.5930
262.0000;677.2264
263.0000;675.5947
264.0000;672.5637
265.0000;671.1812
266.0000;674.9155
267.0000;682.5812
268.0000;689.7215
269.0000;692.5730
270.0000;691.0809
271.0000;687.9472
272.0000;685.7056
273.0000;683.8671
274.0000;683.3655
275.0000;685.4188
276.0000;689.1807
277.0000;692.4000
278.0000;692.2803
279.0000;690.8251
280.0000;690.9955
281.0000;696.4397
282.0000;703.2954
283.0000;707.7505
284.0000;706.3990
285.0000;701.9514
286.0000;699.1250
287.0000;701.5889
288.0000;705.6749
289.0000;707.9149
290.0000;705.6536
291.0000;702.3571
292.0000;701.5190
293.0000;704.8848
294.0000;709.9276
295.0000;714.2718
296.0000;716.8055
297.0000;717.8993
298.0000;718.3663
299.0000;717.9512
300.0000;717.1945
301.0000;717.7949
302.0000;719.8647
303.0000;721.8271
304.0000;721.9753
305.0000;720.1985
306.0000;718.9031
307.0000;720.7227
308.0000;725.6296
309.0000;730.9068
310.0000;735.2557
311.0000;737.6689
312.0000;737.9175
313.0000;735.6665
314.0000;731.0823
315.0000;727.8397
316.0000;729.0558
317.0000;733.8439
318.0000;739.4980
319.0000;744.1682
320.0000;747.3029
321.0000;749.0577
322.0000;749.5255
323.0000;748.4926
324.0000;748.2016
325.0000;751.0114
326.0000;754.3323
327.0000;756.2137
328.0000;755.5673
329.0000;752.5547
330.0000;747.9445
331.0000;741.6655
332.0000;735.8848
333.0000;733.2673
334.0000;735.2623
335.0000;739.7215
336.0000;743.1143
337.0000;744.1445
338.0000;743.7732
339.0000;742.3436
340.0000;739.6726
341.0000;737.4664
342.0000;737.1823
343.0000;739.4101
344.0000;743.2604
345.0000;748.7225
346.0000;754.9395
347.0000;758.7853
348.0000;758.1669
349.0000;752.7239
350.0000;746.6977
351.0000;744.2426
352.0000;744.2727
353.0000;744.4337
354.0000;741.0453
355.0000;737.3079
356.0000;736.2288
357.0000;740.2863
358.0000;747.4326
359.0000;754.1788
360.0000;758.1839
361.0000;759.7242
362.0000;760.5880
363.0000;761.3260
364.0000;761.5173
365.0000;762.7441
366.0000;765.6552
367.0000;768.6616
368.0000;770.5168
369.0000;770.6202
370.0000;769.7133
371.0000;769.0491
372.0000;768.7399
373.0000;769.3298
374.0000;772.2291
375.0000;776.9385
376.0000;780.8455
377.0000;780.5166
378.0000;776.3350
379.0000;773.0676
380.0000;776.5039
381.0000;783.9500
382.0000;789.6877
383.0000;787.7044
384.0000;780.6382
385.0000;774.2000
386.0000;774.5117
387.0000;778.3583
388.0000;781.9688
389.0000;782.0290
390.0000;780.6454
391.0000;779.5068
392.0000;779.4929
393.0000;780.0590
394.0000;780.8422
395.0000;781.4414
396.0000;782.8939
397.0000;786.3423
398.0000;792.3127
399.0000;797.6403
400.0000;799.3906
401.0000;796.5682
402.0000;793.1752
403.0000;794.1833
404.0000;799.4167
405.0000;804.7584
406.0000;806.6387
407.0000;805.4488
408.0000;804.6708
409.0000;809.3189
410.0000;815.9224
411.0000;820.3511
412.0000;817.9631
413.0000;811.3258
414.0000;806.4009
415.0000;808.5279
416.0000;813.7822
417.0000;817.1661
418.0000;814.9125
419.0000;811.1534
420.0000;810.5023
421.0000;815.2089
422.0000;821.6537
423.0000;825.7867
424.0000;825.9566
425.0000;824.6995
426.0000;825.2358
427.0000;827.6155
428.0000;830.2502
429.0000;832.8074
430.0000;834.6329
431.0000;835.4514
432.0000;835.4565
433.0000;834.2734
434.0000;832.8903
435.0000;832.6130
436.0000;832.8269
437.0000;832.7676
438.0000;831.1067
439.0000;829.4652
440.0000;829.1873
441.0000;831.3203
442.0000;835.1257
443.0000;839.2173
444.0000;843.1868
445.0000;846.3325
446.0000;848.4803
447.0000;848.9480
448.0000;849.0443
449.0000;851.4220
450.0000;856.1427
451.0000;861.0044
452.0000;864.4490
453.0000;865.8555
454.0000;866.9012
455.0000;870.3277
456.0000;874.6016
457.0000;878.2518
458.0000;880.1447
459.0000;880.5137
460.0000;881.6865
461.0000;885.6425
462.0000;891.1417
463.0000;897.6973
464.0000;903.7635
465.0000;911.3409
466.0000;923.7943
467.0000;941.7155
468.0000;961.9398
469.0000;984.2161
470.0000;1007.0810
471.0000;1025.8490
472.0000;1042.1890
473.0000;1051.8070
474.0000;1058.3020
475.0000;1071.8220
476.0000;1087.2830
477.0000;1100.9810
478.0000;1115.3440
479.0000;1124.1290
480.0000;1126.5000
481.0000;1126.1810
482.0000;1117.8890
483.0000;1104.6310
484.0000;1088.0380
485.0000;1070.2640
486.0000;1054.1310
487.0000;1042.7130
488.0000;1035.0150
489.0000;1023.7830
490.0000;1009.0770
491.0000;996.4027
492.0000;985.8395
493.0000;980.2637
494.0000;977.8036
495.0000;972.9175
496.0000;968.1775
497.0000;964.0765
498.0000;959.0313
499.0000;954.9201
500.0000;951.4000
501.0000;946.5098
502.0000;943.0721
503.0000;941.3087
504.0000;941.9768
505.0000;943.8063
506.0000;943.1086
507.0000;937.7597
508.0000;931.3387
509.0000;927.2318
510.0000;926.6779
511.0000;928.8766
512.0000;932.1547
513.0000;936.5715
514.0000;941.1034
515.0000;944.5718
516.0000;946.3477
517.0000;947.4944
518.0000;949.8054
519.0000;951.7629
520.0000;953.1942
521.0000;954.1364
522.0000;954.3521
523.0000;954.7281
524.0000;955.4929
525.0000;956.9672
526.0000;960.3216
527.0000;965.9747
528.0000;971.2180
529.0000;973.5432
530.0000;971.7842
531.0000;969.6216
532.0000;971.6705
533.0000;977.1348
534.0000;983.0255
535.0000;986.4779
536.0000;987.7332
537.0000;988.7000
538.0000;992.1196
539.0000;995.3469
540.0000;997.8135
541.0000;998.9792
542.0000;998.9424
543.0000;999.3455
544.0000;1000.7730
545.0000;1001.8320
546.0000;1001.3440
547.0000;999.0824
548.0000;997.7579
549.0000;1000.4860
550.0000;1006.7840
551.0000;1013.4490
552.0000;1017.9150
553.0000;1019.7880
554.0000;1020.5000
555.0000;1022.3580
556.0000;1023.4220
557.0000;1024.0140
558.0000;1024.1450
559.0000;1024.1800
560.0000;1025.8920
561.0000;1030.3510
562.0000;1033.4210
563.0000;1030.2350
564.0000;1020.0590
565.0000;1010.1080
566.0000;1009.2590
567.0000;1017.1840
568.0000;1024.9680
569.0000;1023.4600
570.0000;1016.2340
571.0000;1010.7720
572.0000;1013.7580
573.0000;1020.3000
574.0000;1024.6230
575.0000;1022.3900
576.0000;1018.0910
577.0000;1016.4060
578.0000;1019.1920
579.0000;1023.8340
580.0000;1027.9280
581.0000;1030.9040
582.0000;1032.5430
583.0000;1032.7060
584.0000;1031.0390
585.0000;1029.4660
586.0000;1030.1250
587.0000;1031.9880
588.0000;1033.7750
589.0000;1033.7180
590.0000;1033.8130
591.0000;1036.5380
592.0000;1043.7490
593.0000;1050.7740
594.0000;1054.1900
595.0000;1052.0590
596.0000;1047.1110
597.0000;1043.1080
598.0000;1040.1580
599.0000;1038.9010
600.0000;1038.9130
601.0000;1041.4240
602.0000;1046.3740
603.0000;1053.8850
604.0000;1062.0050
605.0000;1069.1080
606.0000;1073.0830
607.0000;1074.9050
608.0000;1077.8930
609.0000;1082.6030
610.0000;1087.6210
611.0000;1092.3240
612.0000;1096.6500
613.0000;1103.9240
614.0000;1120.3880
615.0000;1141.5190
616.0000;1159.9610
617.0000;1172.4050
618.0000;1177.6120
619.0000;1184.3670
620.0000;1198.9770
621.0000;1213.7670
622.0000;1229.2740
623.0000;1243.1070
624.0000;1253.2790
625.0000;1263.4930
626.0000;1271.0100
627.0000;1277.4030
628.0000;1291.6610
629.0000;1306.9520
630.0000;1314.4310
631.0000;1311.2730
632.0000;1295.4350
633.0000;1274.3280
634.0000;1253.0140
635.0000;1232.3570
636.0000;1214.7700
637.0000;1204.1530
638.0000;1197.2930
639.0000;1183.7180
640.0000;1165.6850
641.0000;1150.3250
642.0000;1137.4510
643.0000;1131.6500
644.0000;1129.8370
645.0000;1125.6730
646.0000;1124.3260
647.0000;1124.6220
648.0000;1126.2020
649.0000;1128.1250
650.0000;1127.0630
651.0000;1121.4780
652.0000;1115.5210
653.0000;1113.2430
654.0000;1115.5680
655.0000;1119.1420
656.0000;1120.3700
657.0000;1120.0570
658.0000;1119.9000
659.0000;1120.6320
660.0000;1122.4810
661.0000;1126.0560
662.0000;1132.1120
663.0000;1138.8790
664.0000;1145.1250
665.0000;1149.5830
666.0000;1152.5920
667.0000;1157.5390
668.0000;1162.2500
669.0000;1163.2070
670.0000;1158.3320
671.0000;1147.7430
672.0000;1135.7370
673.0000;1125.3430
674.0000;1117.3370
675.0000;1110.3160
676.0000;1104.6530
677.0000;1100.6470
678.0000;1093.7940
679.0000;1084.7350
680.0000;1077.5280
681.0000;1072.7110
682.0000;1072.2930
683.0000;1073.9650
684.0000;1074.2720
685.0000;1074.8140
686.0000;1074.8470
687.0000;1073.0750
688.0000;1071.6470
689.0000;1072.8640
690.0000;1077.8120
691.0000;1083.7990
692.0000;1088.1750
693.0000;1089.9290
694.0000;1090.2700
695.0000;1090.7570
696.0000;1090.8660
697.0000;1091.8680
698.0000;1095.2490
699.0000;1099.6570
700.0000;1104.4980
701.0000;1110.2220
702.0000;1112.4850
703.0000;1107.1390
704.0000;1093.3530
705.0000;1079.7790
706.0000;1075.1230
707.0000;1080.0420
708.0000;1087.6440
709.0000;1091.4880
710.0000;1093.1830
711.0000;1092.5160
712.0000;1088.5810
713.0000;1083.6420
714.0000;1082.0630
715.0000;1085.8360
716.0000;1090.0930
717.0000;1088.9410
718.0000;1082.8780
719.0000;1077.8130
720.0000;1080.6330
721.0000;1087.6840
722.0000;1091.0090
723.0000;1082.9090
724.0000;1071.1380
725.0000;1064.9280
726.0000;1069.2510
727.0000;1077.0380
728.0000;1078.8380
729.0000;1074.3140
730.0000;1068.9410
731.0000;1067.4940
732.0000;1069.1100
733.0000;1071.2380
734.0000;1071.3950
735.0000;1071.1150
736.0000;1071.2140
737.0000;1072.0210
738.0000;1073.4190
739.0000;1076.0100
740.0000;1079.4750
741.0000;1081.5570
742.0000;1079.5680
743.0000;1074.5490
744.0000;1070.9000
745.0000;1072.9960
746.0000;1078.1290
747.0000;1082.1450
748.0000;1082.3730
749.0000;1081.5510
750.0000;1083.6740
751.0000;1088.9180
752.0000;1091.6960
753.0000;1085.9520
754.0000;1073.8100
755.0000;1063.5000
756.0000;1062.0770
757.0000;1067.6730
758.0000;1075.2690
759.0000;1082.1150
760.0000;1087.3450
761.0000;1088.4490
762.0000;1083.9920
763.0000;1078.4890
764.0000;1077.8990
765.0000;1081.3300
766.0000;1084.7000
767.0000;1083.1670
768.0000;1080.3830
769.0000;1080.3660
770.0000;1085.4850
771.0000;1093.1940
772.0000;1100.4110
773.0000;1105.9590
774.0000;1110.1420
775.0000;1114.5480
776.0000;1117.3870
777.0000;1118.5000
778.0000;1119.6820
779.0000;1118.8970
780.0000;1116.3740
781.0000;1110.9670
782.0000;1107.7100
783.0000;1112.7900
784.0000;1126.9160
785.0000;1140.7920
786.0000;1144.0280
787.0000;1137.5300
788.0000;1130.4380
789.0000;1130.8590
790.0000;1134.1870
791.0000;1136.9290
792.0000;1136.9790
793.0000;1137.0320
794.0000;1139.5860
795.0000;1144.6860
796.0000;1149.6220
797.0000;1153.2730
798.0000;1154.5610
799.0000;1154.4140
800.0000;1153.4580
801.0000;1151.8750
802.0000;1151.7170
803.0000;1153.9240
804.0000;1156.8700
805.0000;1159.0230
806.0000;1159.8340
807.0000;1159.4960
808.0000;1158.3700
809.0000;1156.3140
810.0000;1154.4950
811.0000;1153.9560
812.0000;1153.7850
813.0000;1152.1660
814.0000;1148.5470
815.0000;1146.6580
816.0000;1149.6320
817.0000;1157.3380
818.0000;1165.4180
819.0000;1170.5360
820.0000;1172.7240
821.0000;1173.7640
822.0000;1174.3440
823.0000;1174.0570
824.0000;1174.7620
825.0000;1176.5140
826.0000;1178.7070
827.0000;1181.0470
828.0000;1183.1660
829.0000;1185.4660
830.0000;1188.3360
831.0000;1190.9890
832.0000;1194.0840
833.0000;1197.9760
834.0000;1200.1940
835.0000;1199.3750
836.0000;1195.2910
837.0000;1190.7630
838.0000;1189.1590
839.0000;1189.7520
840.0000;1190.4030
841.0000;1189.5320
842.0000;1188.8580
843.0000;1189.3210
844.0000;1191.1560
845.0000;1193.5180
846.0000;1195.2760
847.0000;1196.3470
848.0000;1197.5680
849.0000;1200.2650
850.0000;1202.7900
851.0000;1204.1120
852.0000;1203.6020
853.0000;1201.5320
854.0000;1198.1930
855.0000;1194.4260
856.0000;1193.2720
857.0000;1198.9250
858.0000;1208.5950
859.0000;1215.1580
860.0000;1212.9420
861.0000;1207.2640
862.0000;1206.2640
863.0000;1211.7030
864.0000;1217.7710
865.0000;1218.9220
866.0000;1215.4790
867.0000;1211.4210
868.0000;1209.4030
869.0000;1209.3910
870.0000;1211.6240
871.0000;1216.3680
872.0000;1222.4010
873.0000;1227.9480
874.0000;1232.0760
875.0000;1235.6930
876.0000;1241.0050
877.0000;1245.6060
878.0000;1248.8680
879.0000;1250.4320
880.0000;1250.1320
881.0000;1250.3830
882.0000;1251.3030
883.0000;1251.9270
884.0000;1251.4650
885.0000;1250.6190
886.0000;1251.5300
887.0000;1256.2130
888.0000;1262.3670
889.0000;1267.2780
890.0000;1269.3210
891.0000;1270.2080
892.0000;1272.9960
893.0000;1276.5620
894.0000;1279.7000
895.0000;1281.7040
896.0000;1282.8740
897.0000;1285.9110
898.0000;1292.3400
899.0000;1297.4550
900.0000;1297.0580
901.0000;1290.6440
902.0000;1284.8870
903.0000;1286.9300
904.0000;1294.0860
905.0000;1300.0200
906.0000;1301.2420
907.0000;1300.2580
908.0000;1300.2050
909.0000;1301.2570
910.0000;1302.4710
911.0000;1303.9090
912.0000;1305.1340
913.0000;1305.7210
914.0000;1305.1300
915.0000;1304.4170
916.0000;1305.5050
917.0000;1308.9210
918.0000;1312.6290
919.0000;1314.4000
920.0000;1314.3300
921.0000;1314.3600
922.0000;1315.9200
923.0000;1318.4980
924.0000;1322.5960
925.0000;1328.3280
926.0000;1332.7570
927.0000;1332.8280
928.0000;1328.6560
929.0000;1326.6000
930.0000;1333.8760
931.0000;1344.2470
932.0000;1350.1300
933.0000;1346.7100
934.0000;1340.3610
935.0000;1338.9680
936.0000;1342.6150
937.0000;1347.1020
938.0000;1350.5480
939.0000;1351.6630
940.0000;1348.6230
941.0000;1339.7430
942.0000;1330.2800
943.0000;1327.3460
944.0000;1332.0750
945.0000;1338.8760
946.0000;1341.0510
947.0000;1340.9640
948.0000;1341.2410
949.0000;1343.4270
950.0000;1345.2450
951.0000;1345.3700
952.0000;1343.4260
953.0000;1341.1340
954.0000;1339.8880
955.0000;1339.9530
956.0000;1341.2180
957.0000;1343.5650
958.0000;1346.6810
959.0000;1350.2200
960.0000;1353.3020
961.0000;1354.8620
962.0000;1354.6570
963.0000;1352.1290
964.0000;1348.3700
965.0000;1343.7260
966.0000;1340.4930
967.0000;1341.6120
968.0000;1348.0180
969.0000;1354.7210
970.0000;1357.3070
971.0000;1355.9950
972.0000;1353.4450
973.0000;1350.6390
974.0000;1349.2400
975.0000;1353.1920
976.0000;1362.7910
977.0000;1370.9700
978.0000;1369.9410
979.0000;1361.6770
980.0000;1354.7480
981.0000;1354.7180
982.0000;1358.1990
983.0000;1361.3400
984.0000;1363.7380
985.0000;1366.1030
986.0000;1369.0460
987.0000;1371.6460
988.0000;1374.3320
989.0000;1377.2120
990.0000;1379.5000
991.0000;1381.9940
992.0000;1384.0210
993.0000;1384.3270
994.0000;1382.5420
995.0000;1378.6270
996.0000;1374.6600
997.0000;1372.1300
998.0000;1370.4140
999.0000;1368.3230
1000.0000;1366.1760
1001.0000;1364.5460
1002.0000;1363.4270
1003.0000;1362.7760
1004.0000;1360.8120
1005.0000;1356.2620
1006.0000;1352.1170
1007.0000;1351.6570
1008.0000;1355.2190
1009.0000;1358.0650
1010.0000;1355.0230
1011.0000;1348.5810
1012.0000;1342.0070
1013.0000;1337.5130
1014.0000;1335.0240
1015.0000;1332.2050
1016.0000;1330.6980
1017.0000;1333.0720
1018.0000;1341.9060
1019.0000;1353.3070
1020.0000;1359.8330
1021.0000;1357.5190
1022.0000;1349.3210
1023.0000;1338.0590
1024.0000;1326.1130
1025.0000;1320.1360
1026.0000;1325.0310
1027.0000;1338.3750
1028.0000;1350.3990
1029.0000;1356.7190
1030.0000;1359.9520
1031.0000;1364.3820
1032.0000;1367.2820
1033.0000;1367.0290
1034.0000;1363.3410
1035.0000;1357.0880
1036.0000;1351.4410
1037.0000;1347.5450
1038.0000;1347.4920
1039.0000;1354.1350
1040.0000;1364.7420
1041.0000;1369.7570
1042.0000;1361.3050
1043.0000;1348.5410
1044.0000;1342.4220
1045.0000;1346.5210
1046.0000;1354.1020
1047.0000;1358.1770
1048.0000;1360.6530
1049.0000;1363.8880
1050.0000;1369.4230
1051.0000;1373.1270
1052.0000;1372.1570
1053.0000;1366.0530
1054.0000;1360.6440
1055.0000;1363.0590
1056.0000;1368.7660
1057.0000;1370.1440
1058.0000;1363.3150
1059.0000;1354.8510
1060.0000;1350.9700
1061.0000;1352.3800
1062.0000;1355.7370
1063.0000;1358.7520
1064.0000;1361.1710
1065.0000;1360.3050
1066.0000;1355.0360
1067.0000;1351.5160
1068.0000;1357.1980
1069.0000;1369.0500
1070.0000;1378.0220
1071.0000;1378.2990
1072.0000;1372.6150
1073.0000;1365.8530
1074.0000;1359.1410
1075.0000;1354.9600
1076.0000;1355.1670
1077.0000;1360.4640
1078.0000;1367.7100
1079.0000;1375.2500
1080.0000;1382.0210
1081.0000;1387.2120
1082.0000;1389.3110
1083.0000;1389.9860
1084.0000;1392.9630
1085.0000;1394.5410
1086.0000;1393.0790
1087.0000;1387.6290
1088.0000;1383.2640
1089.0000;1385.9900
1090.0000;1394.3200
1091.0000;1401.7130
1092.0000;1403.4990
1093.0000;1401.2100
1094.0000;1397.6420
1095.0000;1393.0200
1096.0000;1388.0740
1097.0000;1383.7400
1098.0000;1380.9400
1099.0000;1378.1460
1100.0000;1374.8710
1101.0000;1372.9710
1102.0000;1372.8610
1103.0000;1374.7370
1104.0000;1375.6250
1105.0000;1372.3940
1106.0000;1367.9150
1107.0000;1365.4730
1108.0000;1366.5540
1109.0000;1368.2600
1110.0000;1367.0890
1111.0000;1364.3690
1112.0000;1362.8850
1113.0000;1364.8900
1114.0000;1366.2740
1115.0000;1361.7440
1116.0000;1351.7460
1117.0000;1342.0980
1118.0000;1336.4380
1119.0000;1335.5770
1120.0000;1336.6750
1121.0000;1339.3120
1122.0000;1342.1160
1123.0000;1341.5870
1124.0000;1338.2460
1125.0000;1334.4250
1126.0000;1332.1480
1127.0000;1330.3720
1128.0000;1327.6790
1129.0000;1324.5330
1130.0000;1321.2660
1131.0000;1317.3490
1132.0000;1313.9230
1133.0000;1310.0160
1134.0000;1305.4110
1135.0000;1302.2650
1136.0000;1301.0100
1137.0000;1302.0310
1138.0000;1302.3420
1139.0000;1299.4830
1140.0000;1295.2170
1141.0000;1290.0130
1142.0000;1285.0370
1143.0000;1281.5660
1144.0000;1280.9760
1145.0000;1282.4530
1146.0000;1281.2090
1147.0000;1274.8650
1148.0000;1268.4370
1149.0000;1266.9950
1150.0000;1270.3110
1151.0000;1272.8030
1152.0000;1270.6500
1153.0000;1265.8350
1154.0000;1258.7060
1155.0000;1250.7570
1156.0000;1246.1790
1157.0000;1250.3710
1158.0000;1259.2950
1159.0000;1261.0530
1160.0000;1249.4750
1161.0000;1236.7710
1162.0000;1234.1660
1163.0000;1241.6440
1164.0000;1250.9910
1165.0000;1256.1600
1166.0000;1258.7000
1167.0000;1259.2300
1168.0000;1257.1340
1169.0000;1254.0320
1170.0000;1252.9900
1171.0000;1252.5920
1172.0000;1250.5630
1173.0000;1246.0450
1174.0000;1244.1450
1175.0000;1251.0300
1176.0000;1263.8490
1177.0000;1271.4080
1178.0000;1266.0690
1179.0000;1254.7480
1180.0000;1248.1240
1181.0000;1247.7030
1182.0000;1249.2000
1183.0000;1247.7570
1184.0000;1247.3210
1185.0000;1249.9920
1186.0000;1256.5220
1187.0000;1262.1150
1188.0000;1262.7910
1189.0000;1258.8350
1190.0000;1254.9200
1191.0000;1253.4740
1192.0000;1252.9550
1193.0000;1252.1260
1194.0000;1251.2590
1195.0000;1250.1660
1196.0000;1248.2870
1197.0000;1246.4950
1198.0000;1244.9630
1199.0000;1244.1290
1200.0000;1243.6420
1201.0000;1241.3880
1202.0000;1240.0910
1203.0000;1243.2760
1204.0000;1252.7620
1205.0000;1262.2400
1206.0000;1265.7130
1207.0000;1262.8270
1208.0000;1258.5910
1209.0000;1256.5940
1210.0000;1254.8080
1211.0000;1252.5730
1212.0000;1250.3030
1213.0000;1248.5470
1214.0000;1247.1980
1215.0000;1246.6650
1216.0000;1245.8330
1217.0000;1244.7080
1218.0000;1243.7130
1219.0000;1243.0180
1220.0000;1242.5440
1221.0000;1241.1770
1222.0000;1238.3330
1223.0000;1236.1370
1224.0000;1234.9290
1225.0000;1236.4110
1226.0000;1242.5320
1227.0000;1256.7780
1228.0000;1269.9710
1229.0000;1271.6440
1230.0000;1260.0100
1231.0000;1248.2840
1232.0000;1249.7220
1233.0000;1256.4520
1234.0000;1258.2670
1235.0000;1252.7310
1236.0000;1246.6250
1237.0000;1244.7410
1238.0000;1246.7470
1239.0000;1250.6580
1240.0000;1255.7870
1241.0000;1260.7270
1242.0000;1263.5640
1243.0000;1263.8650
1244.0000;1264.3880
1245.0000;1267.1510
1246.0000;1269.3560
1247.0000;1269.3960
1248.0000;1267.0790
1249.0000;1264.8230
1250.0000;1264.9050
1251.0000;1265.7930
1252.0000;1265.8090
1253.0000;1264.6220
1254.0000;1262.4370
1255.0000;1258.3140
1256.0000;1254.5290
1257.0000;1253.2930
1258.0000;1255.8270
1259.0000;1259.6950
1260.0000;1262.6840
1261.0000;1263.8250
1262.0000;1261.5070
1263.0000;1254.1460
1264.0000;1247.6110
1265.0000;1249.5170
1266.0000;1258.4620
1267.0000;1266.0920
1268.0000;1266.6570
1269.0000;1264.1120
1270.0000;1263.7870
1271.0000;1265.4560
1272.0000;1266.7210
1273.0000;1266.0430
1274.0000;1264.9240
1275.0000;1265.4820
1276.0000;1268.1030
1277.0000;1270.7470
1278.0000;1272.1970
1279.0000;1272.3930
1280.0000;1271.8370
1281.0000;1270.5820
1282.0000;1270.5910
1283.0000;1275.1230
1284.0000;1281.5080
1285.0000;1283.6910
1286.0000;1278.6000
1287.0000;1273.7860
1288.0000;1278.5870
1289.0000;1289.9230
1290.0000;1299.3400
1291.0000;1301.9230
1292.0000;1300.0310
1293.0000;1298.2450
1294.0000;1295.9880
1295.0000;1294.1430
1296.0000;1293.4720
1297.0000;1294.7960
1298.0000;1299.5640
1299.0000;1306.5510
1300.0000;1310.3350
1301.0000;1306.0900
1302.0000;1297.7120
1303.0000;1291.9260
1304.0000;1290.9380
1305.0000;1292.1600
1306.0000;1294.0540
1307.0000;1295.8740
1308.0000;1294.0260
1309.0000;1287.2850
1310.0000;1281.2750
1311.0000;1279.6260
1312.0000;1282.7980
1313.0000;1288.7420
1314.0000;1296.3750
1315.0000;1303.0680
1316.0000;1305.5210
1317.0000;1304.0330
1318.0000;1304.4510
1319.0000;1309.4110
1320.0000;1315.4030
1321.0000;1321.2400
1322.0000;1324.7040
1323.0000;1323.5730
1324.0000;1316.3730
1325.0000;1306.5380
1326.0000;1297.4070
1327.0000;1292.1160
1328.0000;1292.4820
1329.0000;1300.5530
1330.0000;1311.4960
1331.0000;1315.4330
1332.0000;1311.8020
1333.0000;1308.2790
1334.0000;1311.5040
1335.0000;1315.4770
1336.0000;1313.8950
1337.0000;1306.9780
1338.0000;1303.3740
1339.0000;1310.4540
1340.0000;1321.6310
1341.0000;1328.8160
1342.0000;1328.9530
1343.0000;1325.6000
1344.0000;1322.4510
1345.0000;1318.2610
1346.0000;1313.6170
1347.0000;1309.7220
1348.0000;1309.2960
1349.0000;1315.5580
1350.0000;1324.1760
1351.0000;1326.0130
1352.0000;1317.9610
1353.0000;1308.2430
1354.0000;1305.5630
1355.0000;1306.8800
1356.0000;1305.4470
1357.0000;1299.5530
1358.0000;1296.0660
1359.0000;1301.3910
1360.0000;1311.9620
1361.0000;1318.5090
1362.0000;1317.0630
1363.0000;1312.9510
1364.0000;1313.2440
1365.0000;1315.1690
1366.0000;1314.9810
1367.0000;1311.0520
1368.0000;1306.6840
1369.0000;1303.7090
1370.0000;1303.4710
1371.0000;1306.4030
1372.0000;1313.0890
1373.0000;1319.2480
1374.0000;1320.3440
1375.0000;1316.5980
1376.0000;1313.5070
1377.0000;1314.0260
1378.0000;1315.3680
1379.0000;1315.8210
1380.0000;1315.1540
1381.0000;1312.8970
1382.0000;1308.6300
1383.0000;1304.3240
1384.0000;1300.6190
1385.0000;1299.4690
1386.0000;1303.3150
1387.0000;1314.4930
1388.0000;1324.8900
1389.0000;1324.7550
1390.0000;1314.7500
1391.0000;1305.8550
1392.0000;1304.8420
1393.0000;1307.0470
1394.0000;1307.0500
1395.0000;1306.2770
1396.0000;1307.7870
1397.0000;1313.3260
1398.0000;1319.6240
1399.0000;1322.8670
1400.0000;1322.8980
1401.0000;1324.3960
1402.0000;1330.9870
1403.0000;1336.6330
1404.0000;1336.2120
1405.0000;1330.1030
1406.0000;1325.4670
1407.0000;1327.0650
1408.0000;1331.1150
1409.0000;1334.0280
1410.0000;1335.1570
1411.0000;1333.8400
1412.0000;1328.9460
1413.0000;1324.0530
1414.0000;1324.6030
1415.0000;1329.6200
1416.0000;1331.8080
1417.0000;1326.3440
1418.0000;1318.4060
1419.0000;1312.5610
1420.0000;1310.4880
1421.0000;1312.3150
1422.0000;1318.2710
1423.0000;1325.9330
1424.0000;1331.9070
1425.0000;1334.2580
1426.0000;1332.2740
1427.0000;1324.5140
1428.0000;1317.2530
1429.0000;1320.0110
1430.0000;1330.7230
1431.0000;1338.2850
1432.0000;1335.9740
1433.0000;1330.9440
1434.0000;1331.9410
1435.0000;1336.9380
1436.0000;1340.5250
1437.0000;1339.8100
1438.0000;1336.6320
1439.0000;1334.1440
1440.0000;1331.0120
1441.0000;1324.1270
1442.0000;1312.6180
1443.0000;1301.9830
1444.0000;1294.8780
1445.0000;1294.2540
1446.0000;1297.6490
1447.0000;1304.1580
1448.0000;1312.6100
1449.0000;1320.6430
1450.0000;1325.9750
1451.0000;1329.4230
1452.0000;1330.5720
1453.0000;1327.2020
1454.0000;1318.8500
1455.0000;1308.3520
1456.0000;1302.4730
1457.0000;1305.0620
1458.0000;1310.3910
1459.0000;1312.0080
1460.0000;1311.1390
1461.0000;1307.8880
1462.0000;1302.1920
1463.0000;1299.6500
1464.0000;1305.4140
1465.0000;1316.1620
1466.0000;1324.1230
1467.0000;1326.6080
1468.0000;1324.6000
1469.0000;1319.8280
1470.0000;1312.8930
1471.0000;1308.7820
1472.0000;1309.1550
1473.0000;1308.8850
1474.0000;1302.4920
1475.0000;1295.1770
1476.0000;1291.5370
1477.0000;1292.9430
1478.0000;1296.6130
1479.0000;1300.2090
1480.0000;1303.0050
1481.0000;1302.2610
1482.0000;1297.8800
1483.0000;1294.6070
1484.0000;1296.4900
1485.0000;1298.6950
1486.0000;1294.2080
1487.0000;1285.5080
1488.0000;1281.5610
1489.0000;1288.1850
1490.0000;1299.3170
1491.0000;1307.2310
1492.0000;1310.7710
1493.0000;1310.3080
1494.0000;1305.1720
1495.0000;1299.8130
1496.0000;1301.7640
1497.0000;1308.1260
1498.0000;1310.7310
1499.0000;1305.5290
1500.0000;1299.1660
1501.0000;1298.0530
1502.0000;1299.9080
1503.0000;1299.0710
1504.0000;1293.9720
1505.0000;1289.9040
1506.0000;1290.7120
1507.0000;1294.4610
1508.0000;1296.2450
1509.0000;1294.8780
1510.0000;1293.9290
1511.0000;1296.6510
1512.0000;1300.1190
1513.0000;1300.9230
1514.0000;1298.6260
1515.0000;1296.6470
1516.0000;1297.5900
1517.0000;1299.7910
1518.0000;1301.5540
1519.0000;1302.4910
1520.0000;1302.6940
1521.0000;1301.9200
1522.0000;1301.0490
1523.0000;1301.6610
1524.0000;1303.4570
1525.0000;1305.1270
1526.0000;1305.9810
1527.0000;1306.1250
1528.0000;1305.9470
1529.0000;1305.2920
1530.0000;1304.7240
1531.0000;1304.5060
1532.0000;1304.5830
1533.0000;1304.7240
1534.0000;1305.2410
1535.0000;1306.4630
1536.0000;1308.2260
1537.0000;1309.4260
1538.0000;1309.5820
1539.0000;1308.1660
1540.0000;1305.0020
1541.0000;1300.7970
1542.0000;1298.7140
1543.0000;1300.8720
1544.0000;1305.5110
1545.0000;1309.7070
1546.0000;1312.1870
1547.0000;1311.2220
1548.0000;1304.9600
1549.0000;1299.5120
1550.0000;1303.3720
1551.0000;1312.8280
1552.0000;1317.7650
1553.0000;1312.9180
1554.0000;1305.3010
1555.0000;1302.0630
1556.0000;1301.6500
1557.0000;1300.6630
1558.0000;1298.9460
1559.0000;1299.5870
1560.0000;1305.8570
1561.0000;1312.4830
1562.0000;1312.0110
1563.0000;1303.5200
1564.0000;1294.6050
1565.0000;1289.9730
1566.0000;1289.9840
1567.0000;1294.6870
1568.0000;1302.9690
1569.0000;1307.2990
1570.0000;1302.7570
1571.0000;1296.2130
1572.0000;1296.6030
1573.0000;1300.8160
1574.0000;1301.5080
1575.0000;1296.1420
1576.0000;1290.1200
1577.0000;1288.1100
1578.0000;1288.5990
1579.0000;1287.4050
1580.0000;1284.4950
1581.0000;1282.6180
1582.0000;1283.5060
1583.0000;1285.4950
1584.0000;1285.7380
1585.0000;1284.0710
1586.0000;1281.3550
1587.0000;1277.7150
1588.0000;1275.3080
1589.0000;1275.5380
1590.0000;1279.1560
1591.0000;1285.4180
1592.0000;1293.7190
1593.0000;1300.0290
1594.0000;1301.4420
1595.0000;1297.9750
1596.0000;1294.6520
1597.0000;1292.5460
1598.0000;1292.0420
1599.0000;1294.4880
1600.0000;1297.6770
1601.0000;1298.3550
1602.0000;1296.0520
1603.0000;1292.1120
1604.0000;1287.3030
1605.0000;1283.8840
1606.0000;1284.4640
1607.0000;1288.3180
1608.0000;1289.5910
1609.0000;1286.2500
1610.0000;1283.7050
1611.0000;1287.1110
1612.0000;1293.2620
1613.0000;1297.8160
1614.0000;1299.1450
1615.0000;1297.7830
1616.0000;1294.1310
1617.0000;1289.4830
1618.0000;1287.1460
1619.0000;1287.5830
1620.0000;1288.9450
1621.0000;1290.2360
1622.0000;1291.9020
1623.0000;1293.7290
1624.0000;1295.1340
1625.0000;1295.8530
1626.0000;1295.5460
1627.0000;1295.1300
1628.0000;1297.0330
1629.0000;1297.7120
1630.0000;1292.9920
1631.0000;1283.7790
1632.0000;1275.6640
1633.0000;1272.4280
1634.0000;1273.8610
1635.0000;1277.8270
1636.0000;1284.1330
1637.0000;1289.7500
1638.0000;1292.4450
1639.0000;1292.6190
1640.0000;1291.9280
1641.0000;1289.1950
1642.0000;1286.1040
1643.0000;1283.0540
1644.0000;1280.1890
1645.0000;1277.3170
1646.0000;1275.5360
1647.0000;1273.2750
1648.0000;1272.4780
1649.0000;1275.6910
1650.0000;1284.2150
1651.0000;1290.6140
1652.0000;1286.8760
1653.0000;1278.5160
1654.0000;1277.9360
1655.0000;1286.8710
1656.0000;1293.5660
1657.0000;1288.8630
1658.0000;1279.7220
1659.0000;1273.7490
1660.0000;1272.0260
1661.0000;1272.3080
1662.0000;1274.1850
1663.0000;1276.6310
1664.0000;1276.9900
1665.0000;1276.2640
1666.0000;1276.7870
1667.0000;1278.6870
1668.0000;1279.2600
1669.0000;1276.3220
1670.0000;1272.8250
1671.0000;1273.8130
1672.0000;1277.6460
1673.0000;1276.6180
1674.0000;1266.8100
1675.0000;1258.6360
1676.0000;1262.8470
1677.0000;1273.3130
1678.0000;1275.6970
1679.0000;1267.5610
1680.0000;1260.8340
1681.0000;1265.3390
1682.0000;1269.8890
1683.0000;1258.6160
1684.0000;1239.0000
1685.0000;1231.9020
1686.0000;1248.8750
1687.0000;1266.7720
1688.0000;1260.8470
1689.0000;1243.4770
1690.0000;1233.6900
1691.0000;1235.6180
1692.0000;1238.4070
1693.0000;1235.0010
1694.0000;1231.4320
1695.0000;1230.2290
1696.0000;1232.3900
1697.0000;1237.9960
1698.0000;1246.7550
1699.0000;1255.0000
1700.0000;1260.0960
1701.0000;1261.5080
1702.0000;1264.0150
1703.0000;1266.2080
1704.0000;1265.7650
1705.0000;1262.2830
1706.0000;1255.8340
1707.0000;1246.5630
1708.0000;1237.9270
1709.0000;1234.1580
1710.0000;1237.6020
1711.0000;1243.1400
1712.0000;1245.3650
1713.0000;1245.9470
1714.0000;1245.3340
1715.0000;1243.8700
1716.0000;1244.6770
1717.0000;1249.5000
1718.0000;1253.6560
1719.0000;1251.2090
1720.0000;1247.1030
1721.0000;1251.3740
1722.0000;1264.4020
1723.0000;1274.8790
1724.0000;1275.4880
1725.0000;1270.2750
1726.0000;1266.3580
1727.0000;1263.3020
1728.0000;1262.3190
1729.0000;1264.1520
1730.0000;1265.7970
1731.0000;1264.2280
1732.0000;1261.1330
1733.0000;1257.8990
1734.0000;1255.5350
1735.0000;1255.2620
1736.0000;1257.9550
1737.0000;1261.4240
1738.0000;1263.0430
1739.0000;1262.4480
1740.0000;1259.5850
1741.0000;1254.8230
1742.0000;1251.2440
1743.0000;1250.3640
1744.0000;1253.8390
1745.0000;1264.1350
1746.0000;1275.9820
1747.0000;1277.6020
1748.0000;1264.1630
1749.0000;1250.1880
1750.0000;1247.7600
1751.0000;1251.0300
1752.0000;1250.3310
1753.0000;1247.6970
1754.0000;1248.1370
1755.0000;1253.6600
1756.0000;1258.1650
1757.0000;1254.0960
1758.0000;1247.5710
1759.0000;1248.6450
1760.0000;1257.9950
1761.0000;1266.2040
1762.0000;1268.6270
1763.0000;1266.2030
1764.0000;1261.7920
1765.0000;1254.6710
1766.0000;1245.8050
1767.0000;1237.6960
1768.0000;1233.9170
1769.0000;1236.5510
1770.0000;1243.8910
1771.0000;1249.9550
1772.0000;1254.9450
1773.0000;1261.6690
1774.0000;1269.7520
1775.0000;1274.3770
1776.0000;1274.0050
1777.0000;1269.1900
1778.0000;1265.6720
1779.0000;1263.1770
1780.0000;1260.7020
1781.0000;1258.3050
1782.0000;1255.6000
1783.0000;1249.1940
1784.0000;1244.8120
1785.0000;1246.9640
1786.0000;1255.9350
1787.0000;1263.8300
1788.0000;1266.5410
1789.0000;1266.2520
1790.0000;1266.3930
1791.0000;1265.5010
1792.0000;1265.0800
1793.0000;1265.0950
1794.0000;1264.2540
1795.0000;1261.9840
1796.0000;1259.1420
1797.0000;1255.3810
1798.0000;1252.8050
1799.0000;1252.9120
1800.0000;1256.3480
1801.0000;1260.8250
1802.0000;1264.5910
1803.0000;1266.3650
1804.0000;1264.9100
1805.0000;1261.3980
1806.0000;1261.1330
1807.0000;1265.2300
1808.0000;1267.6490
1809.0000;1264.8680
1810.0000;1258.6170
1811.0000;1250.6640
1812.0000;1243.1080
1813.0000;1239.0740
1814.0000;1240.4110
1815.0000;1244.9000
1816.0000;1250.0410
1817.0000;1254.1940
1818.0000;1253.9010
1819.0000;1250.2900
1820.0000;1250.2600
1821.0000;1255.8620
1822.0000;1262.5260
1823.0000;1267.8220
1824.0000;1269.8140
1825.0000;1267.5000
1826.0000;1261.6560
1827.0000;1259.3650
1828.0000;1263.0820
1829.0000;1265.7790
1830.0000;1260.4240
1831.0000;1253.8850
1832.0000;1254.0480
1833.0000;1260.0530
1834.0000;1264.7210
1835.0000;1265.2040
1836.0000;1264.9450
1837.0000;1267.5080
1838.0000;1268.8420
1839.0000;1264.7450
1840.0000;1257.6750
1841.0000;1257.0540
1842.0000;1266.4450
1843.0000;1275.0830
1844.0000;1273.6520
1845.0000;1267.7290
1846.0000;1265.7670
1847.0000;1266.9000
1848.0000;1267.4030
1849.0000;1266.2570
1850.0000;1266.5570
1851.0000;1270.6970
1852.0000;1275.6680
1853.0000;1278.2240
1854.0000;1277.6620
1855.0000;1275.8270
1856.0000;1273.2820
1857.0000;1271.6230
1858.0000;1272.4270
1859.0000;1274.9580
1860.0000;1277.6460
1861.0000;1280.0280
1862.0000;1281.3860
1863.0000;1281.2510
1864.0000;1282.6180
1865.0000;1289.9390
1866.0000;1294.4560
1867.0000;1286.0650
1868.0000;1269.7650
1869.0000;1261.2850
1870.0000;1266.0490
1871.0000;1273.7490
1872.0000;1276.9000
1873.0000;1277.3310
1874.0000;1275.3410
1875.0000;1270.7220
1876.0000;1265.8580
1877.0000;1262.0760
1878.0000;1260.8490
1879.0000;1263.3390
1880.0000;1267.0520
1881.0000;1267.7580
1882.0000;1266.1120
1883.0000;1263.8300
1884.0000;1261.7020
1885.0000;1261.0410
1886.0000;1262.5950
1887.0000;1266.4540
1888.0000;1273.3780
1889.0000;1279.6910
1890.0000;1279.7330
1891.0000;1273.0220
1892.0000;1267.4800
1893.0000;1267.9780
1894.0000;1268.8220
1895.0000;1262.9910
1896.0000;1257.1760
1897.0000;1258.2760
1898.0000;1266.7740
1899.0000;1277.2780
1900.0000;1286.9020
1901.0000;1290.7410
1902.0000;1284.8490
1903.0000;1273.5920
1904.0000;1266.9920
1905.0000;1266.5420
1906.0000;1269.0320
1907.0000;1274.0030
1908.0000;1277.7780
1909.0000;1277.3280
1910.0000;1273.1790
1911.0000;1266.3800
1912.0000;1259.5860
1913.0000;1258.6450
1914.0000;1265.1030
1915.0000;1269.6610
1916.0000;1265.3860
1917.0000;1258.9620
1918.0000;1256.0200
1919.0000;1256.9790
1920.0000;1261.2720
1921.0000;1267.9340
1922.0000;1272.3800
1923.0000;1271.4860
1924.0000;1268.5540
1925.0000;1268.7440
1926.0000;1268.7250
1927.0000;1265.0640
1928.0000;1259.0710
1929.0000;1254.6590
1930.0000;1254.0900
1931.0000;1255.1170
1932.0000;1255.6100
1933.0000;1255.5400
1934.0000;1252.8190
1935.0000;1248.8260
1936.0000;1247.0990
1937.0000;1248.7220
1938.0000;1250.7540
1939.0000;1250.9650
1940.0000;1251.3050
1941.0000;1253.2490
1942.0000;1256.1350
1943.0000;1259.1440
1944.0000;1261.8050
1945.0000;1264.7450
1946.0000;1268.3740
1947.0000;1269.4870
1948.0000;1266.1170
1949.0000;1260.8730
1950.0000;1259.8040
1951.0000;1262.1850
1952.0000;1263.1630
1953.0000;1261.1120
1954.0000;1256.3640
1955.0000;1247.2770
1956.0000;1241.1680
1957.0000;1245.5330
1958.0000;1256.7470
1959.0000;1261.4620
1960.0000;1257.8970
1961.0000;1256.4390
1962.0000;1262.9590
1963.0000;1267.1000
1964.0000;1260.1310
1965.0000;1248.6600
1966.0000;1243.2740
1967.0000;1245.1510
1968.0000;1248.7120
1969.0000;1252.5560
1970.0000;1255.8410
1971.0000;1257.4090
1972.0000;1256.3300
1973.0000;1251.9820
1974.0000;1247.0500
1975.0000;1249.2300
1976.0000;1258.2780
1977.0000;1261.1010
1978.0000;1250.4790
1979.0000;1240.8000
1980.0000;1245.5220
1981.0000;1256.3030
1982.0000;1260.1340
1983.0000;1256.9280
1984.0000;1252.3330
1985.0000;1247.9890
1986.0000;1244.9520
1987.0000;1244.7000
1988.0000;1245.9820
1989.0000;1244.9460
1990.0000;1244.5270
1991.0000;1249.3570
1992.0000;1257.9710
1993.0000;1261.2860
1994.0000;1254.7820
1995.0000;1249.2630
1996.0000;1255.7970
1997.0000;1264.6010
1998.0000;1263.7020
1999.0000;1256.0960
2000.0000;1252.4600
2001.0000;1255.1740
2002.0000;1259.4760
2003.0000;1262.8700
2004.0000;1265.9360
2005.0000;1269.2920
2006.0000;1271.2160
2007.0000;1272.5270
2008.0000;1271.9710
2009.0000;1268.6900
2010.0000;1262.7630
2011.0000;1259.4770
2012.0000;1263.2230
2013.0000;1266.3810
2014.0000;1258.4590
2015.0000;1246.6270
2016.0000;1242.3310
2017.0000;1247.1000
2018.0000;1252.1720
2019.0000;1253.9750
2020.0000;1255.3340
2021.0000;1257.1740
2022.0000;1259.5770
2023.0000;1266.1080
2024.0000;1271.5530
2025.0000;1267.8140
2026.0000;1254.5950
2027.0000;1242.0620
2028.0000;1235.8160
2029.0000;1237.6080
2030.0000;1248.3690
2031.0000;1261.7390
2032.0000;1266.1990
2033.0000;1261.5040
2034.0000;1255.6040
2035.0000;1250.2500
2036.0000;1247.8830
2037.0000;1251.1300
2038.0000;1254.2860
2039.0000;1250.6080
2040.0000;1244.9570
2041.0000;1244.2580
2042.0000;1246.6750
2043.0000;1244.7460
2044.0000;1237.9010
2045.0000;1233.2050
2046.0000;1234.5290
2047.0000;1239.1000
2048.0000;1243.7660
2049.0000;1247.7300
2050.0000;1248.7240
2051.0000;1246.8830
2052.0000;1247.0730
2053.0000;1249.7790
2054.0000;1250.2230
2055.0000;1245.9270
2056.0000;1240.0000
2057.0000;1233.8320
2058.0000;1231.8080
2059.0000;1239.6740
2060.0000;1252.9110
2061.0000;1255.6720
2062.0000;1243.8360
2063.0000;1233.6660
2064.0000;1235.8850
2065.0000;1240.6000
2066.0000;1237.4900
2067.0000;1232.5760
2068.0000;1232.2810
2069.0000;1235.1620
2070.0000;1233.9130
2071.0000;1227.8300
2072.0000;1226.1820
2073.0000;1234.3750
2074.0000;1242.3590
2075.0000;1239.4420
2076.0000;1233.0940
2077.0000;1236.3620
2078.0000;1244.4300
2079.0000;1243.2770
2080.0000;1231.2840
2081.0000;1219.6120
2082.0000;1214.8180
2083.0000;1217.3090
2084.0000;1227.3550
2085.0000;1239.5180
2086.0000;1242.8750
2087.0000;1240.0420
2088.0000;1246.0360
2089.0000;1259.8710
2090.0000;1264.4930
2091.0000;1252.4870
2092.0000;1239.0190
2093.0000;1238.1830
2094.0000;1244.0590
2095.0000;1248.5870
2096.0000;1252.7540
2097.0000;1256.7130
2098.0000;1258.3830
2099.0000;1254.9760
2100.0000;1245.5870
2101.0000;1237.5920
2102.0000;1236.6290
2103.0000;1240.3920
2104.0000;1245.0820
2105.0000;1249.4570
2106.0000;1250.2500
2107.0000;1246.4000
2108.0000;1239.8820
2109.0000;1231.8430
2110.0000;1226.5560
2111.0000;1226.8380
2112.0000;1231.2000
2113.0000;1236.5370
2114.0000;1240.9100
2115.0000;1240.2730
2116.0000;1235.6780
2117.0000;1234.3790
2118.0000;1237.8510
2119.0000;1242.6570
2120.0000;1247.1520
2121.0000;1249.0270
2122.0000;1246.1110
2123.0000;1241.6690
2124.0000;1241.4290
2125.0000;1244.1620
2126.0000;1246.8390
2127.0000;1248.4860
2128.0000;1247.9440
2129.0000;1244.5500
2130.0000;1241.0920
2131.0000;1240.1780
2132.0000;1239.2900
2133.0000;1233.6390
2134.0000;1229.1700
2135.0000;1233.1070
2136.0000;1243.2070
2137.0000;1250.0860
2138.0000;1250.5010
2139.0000;1246.9090
2140.0000;1240.3240
2141.0000;1234.5210
2142.0000;1233.6450
2143.0000;1236.0560
2144.0000;1237.9300
2145.0000;1239.3450
2146.0000;1239.7590
2147.0000;1238.1010
2148.0000;1232.3940
2149.0000;1223.1880
2150.0000;1219.3510
2151.0000;1226.7000
2152.0000;1237.0000
2153.0000;1242.1310
2154.0000;1240.9610
2155.0000;1232.2630
2156.0000;1220.8090
2157.0000;1220.9550
2158.0000;1233.4690
2159.0000;1239.2600
2160.0000;1229.9600
2161.0000;1220.5150
2162.0000;1221.3890
2163.0000;1225.5760
2164.0000;1225.6890
2165.0000;1223.4680
2166.0000;1219.0600
2167.0000;1214.1640
2168.0000;1213.3890
2169.0000;1217.4030
2170.0000;1219.1380
2171.0000;1214.8980
2172.0000;1212.1190
2173.0000;1217.0890
2174.0000;1222.6580
2175.0000;1220.3330
2176.0000;1214.8580
2177.0000;1215.7120
2178.0000;1222.2030
2179.0000;1229.5420
2180.0000;1234.7120
2181.0000;1234.0290
2182.0000;1225.2430
2183.0000;1216.5100
2184.0000;1215.7630
2185.0000;1219.1550
2186.0000;1221.1680
2187.0000;1221.4640
2188.0000;1218.1950
2189.0000;1211.6200
2190.0000;1204.0460
2191.0000;1197.7490
2192.0000;1198.9790
2193.0000;1211.1400
2194.0000;1222.3190
2195.0000;1221.1110
2196.0000;1216.0500
2197.0000;1219.4080
2198.0000;1226.6150
2199.0000;1233.6130
2200.0000;1236.9650
2201.0000;1232.9050
2202.0000;1221.0810
2203.0000;1213.0730
2204.0000;1215.2330
2205.0000;1219.0150
2206.0000;1216.0090
2207.0000;1213.7590
2208.0000;1219.0990
2209.0000;1226.9730
2210.0000;1228.1320
2211.0000;1223.9580
2212.0000;1224.8340
2213.0000;1231.1280
2214.0000;1232.9950
2215.0000;1226.0440
2216.0000;1220.9180
2217.0000;1226.1560
2218.0000;1230.9960
2219.0000;1223.3660
2220.0000;1211.4730
2221.0000;1207.9630
2222.0000;1210.8940
2223.0000;1209.2330
2224.0000;1202.8060
2225.0000;1197.1680
2226.0000;1194.8480
2227.0000;1197.5480
2228.0000;1207.0100
2229.0000;1213.0600
2230.0000;1204.2550
2231.0000;1191.5480
2232.0000;1192.2660
2233.0000;1200.9590
2234.0000;1202.1900
2235.0000;1196.6920
2236.0000;1193.8870
2237.0000;1195.9810
2238.0000;1199.5840
2239.0000;1203.0050
2240.0000;1206.7010
2241.0000;1211.5140
2242.0000;1212.9040
2243.0000;1206.3340
2244.0000;1198.3830
2245.0000;1202.3180
2246.0000;1214.2470
2247.0000;1219.9140
2248.0000;1215.7920
2249.0000;1205.1110
2250.0000;1190.2620
2251.0000;1184.1940
2252.0000;1195.9890
2253.0000;1211.0070
2254.0000;1213.8200
2255.0000;1210.3040
2256.0000;1209.0710
2257.0000;1207.5490
2258.0000;1205.5790
2259.0000;1203.0680
2260.0000;1198.1680
2261.0000;1192.1850
2262.0000;1190.1240
2263.0000;1194.3110
2264.0000;1200.8820
2265.0000;1206.7800
2266.0000;1209.5310
2267.0000;1207.1010
2268.0000;1201.5180
2269.0000;1198.1110
2270.0000;1197.5740
2271.0000;1199.3320
2272.0000;1203.7090
2273.0000;1209.0730
2274.0000;1213.9530
2275.0000;1216.0790
2276.0000;1214.0320
2277.0000;1213.8840
2278.0000;1221.1060
2279.0000;1228.3060
2280.0000;1229.1070
2281.0000;1225.6520
2282.0000;1223.6710
2283.0000;1221.6810
2284.0000;1217.5990
2285.0000;1213.1440
2286.0000;1210.8550
2287.0000;1212.0470
2288.0000;1215.7620
2289.0000;1220.8850
2290.0000;1220.6310
2291.0000;1209.6950
2292.0000;1198.0480
2293.0000;1195.9190
2294.0000;1200.2410
2295.0000;1205.1820
2296.0000;1208.8170
2297.0000;1204.6360
2298.0000;1195.9890
2299.0000;1198.1220
2300.0000;1211.4220
2301.0000;1218.7620
2302.0000;1213.0260
2303.0000;1205.8270
2304.0000;1203.8560
2305.0000;1205.1990
2306.0000;1209.6940
2307.0000;1213.7850
2308.0000;1212.2390
2309.0000;1207.6480
2310.0000;1206.6270
2311.0000;1207.7600
2312.0000;1206.1370
2313.0000;1202.1640
2314.0000;1199.4260
2315.0000;1199.2110
2316.0000;1200.5270
2317.0000;1202.7320
2318.0000;1205.1130
2319.0000;1206.6780
2320.0000;1206.6610
2321.0000;1203.1610
2322.0000;1201.7430
2323.0000;1208.7190
2324.0000;1221.9240
2325.0000;1238.8670
2326.0000;1252.4950
2327.0000;1257.3170
2328.0000;1249.3300
2329.0000;1234.4390
2330.0000;1217.2650
2331.0000;1206.4130
2332.0000;1207.9730
2333.0000;1212.2960
2334.0000;1208.9520
2335.0000;1203.5000
2336.0000;1198.9240
2337.0000;1194.6020
2338.0000;1186.2150
2339.0000;1181.2290
2340.0000;1189.0260
2341.0000;1206.4010
2342.0000;1215.4930
2343.0000;1212.4140
2344.0000;1208.7570
2345.0000;1208.0730
2346.0000;1206.0050
2347.0000;1201.1750
2348.0000;1201.1200
2349.0000;1211.4240
2350.0000;1222.3000
2351.0000;1223.0110
2352.0000;1216.9140
2353.0000;1211.9520
2354.0000;1208.3610
2355.0000;1207.1450
2356.0000;1208.9970
2357.0000;1211.4060
2358.0000;1213.3050
2359.0000;1212.9360
2360.0000;1209.4650
2361.0000;1203.8180
2362.0000;1197.0540
2363.0000;1193.7800
2364.0000;1196.8650
2365.0000;1203.5500
2366.0000;1210.3850
2367.0000;1213.8790
2368.0000;1210.2100
2369.0000;1202.8620
2370.0000;1201.5950
2371.0000;1205.1380
2372.0000;1207.4040
2373.0000;1207.5290
2374.0000;1205.4480
2375.0000;1201.5480
2376.0000;1199.4180
2377.0000;1200.6840
2378.0000;1201.3900
2379.0000;1199.1500
2380.0000;1198.1750
2381.0000;1201.5660
2382.0000;1204.8040
2383.0000;1202.1420
2384.0000;1199.4470
2385.0000;1205.2950
2386.0000;1213.9810
2387.0000;1215.9100
2388.0000;1211.6390
2389.0000;1209.1570
2390.0000;1208.3890
2391.0000;1205.0750
2392.0000;1199.4260
2393.0000;1194.4620
2394.0000;1192.0830
2395.0000;1193.3040
2396.0000;1198.1880
2397.0000;1205.4030
2398.0000;1213.7750
2399.0000;1217.3190
2400.0000;1211.7470
2401.0000;1203.0820
2402.0000;1203.0920
2403.0000;1206.8210
2404.0000;1204.0010
2405.0000;1197.8960
2406.0000;1194.0770
2407.0000;1194.8820
2408.0000;1202.4200
2409.0000;1213.9190
2410.0000;1214.6710
2411.0000;1199.9870
2412.0000;1189.0680
2413.0000;1191.1290
2414.0000;1197.0320
2415.0000;1200.9540
2416.0000;1203.7550
2417.0000;1204.3750
2418.0000;1204.4000
2419.0000;1208.0420
2420.0000;1211.1510
2421.0000;1210.3260
2422.0000;1206.3030
2423.0000;1202.7450
2424.0000;1199.7360
2425.0000;1194.4550
2426.0000;1189.6970
2427.0000;1192.2610
2428.0000;1202.2220
2429.0000;1207.1400
2430.0000;1202.9870
2431.0000;1199.3960
2432.0000;1201.1540
2433.0000;1198.2980
2434.0000;1185.1880
2435.0000;1175.4580
2436.0000;1181.6850
2437.0000;1188.7000
2438.0000;1175.1790
2439.0000;1160.1280
2440.0000;1166.1650
2441.0000;1183.4280
2442.0000;1189.9120
2443.0000;1187.9130
2444.0000;1188.4290
2445.0000;1189.9080
2446.0000;1188.1420
2447.0000;1184.7220
2448.0000;1188.9630
2449.0000;1201.3680
2450.0000;1208.8800
2451.0000;1205.3000
2452.0000;1201.4670
2453.0000;1203.0980
2454.0000;1204.3710
2455.0000;1202.6050
2456.0000;1199.3340
2457.0000;1194.8670
2458.0000;1193.4000
2459.0000;1199.9160
2460.0000;1207.8330
2461.0000;1207.8530
2462.0000;1201.9220
2463.0000;1195.8980
2464.0000;1191.4120
2465.0000;1189.5010
2466.0000;1192.0240
2467.0000;1198.6840
2468.0000;1206.8030
2469.0000;1208.9490
2470.0000;1202.7560
2471.0000;1196.8800
2472.0000;1194.7580
2473.0000;1192.8060
2474.0000;1190.3200
2475.0000;1188.9350
2476.0000;1189.2600
2477.0000;1189.4490
2478.0000;1187.1230
2479.0000;1186.2030
2480.0000;1189.8400
2481.0000;1194.3380
2482.0000;1194.5810
2483.0000;1193.3940
2484.0000;1195.9300
2485.0000;1199.7290
2486.0000;1202.0070
2487.0000;1202.2330
2488.0000;1201.6090
2489.0000;1200.4550
2490.0000;1200.7520
2491.0000;1202.6280
2492.0000;1205.0410
2493.0000;1207.1230
2494.0000;1208.1240
2495.0000;1207.0970
2496.0000;1202.0970
2497.0000;1193.3240
2498.0000;1187.1190
2499.0000;1187.4070
2500.0000;1189.1550
2501.0000;1188.4100
2502.0000;1186.9130
2503.0000;1184.0910
2504.0000;1184.2030
2505.0000;1191.1980
2506.0000;1199.4740
2507.0000;1203.6140
2508.0000;1201.9490
2509.0000;1194.5370
2510.0000;1186.6110
2511.0000;1187.7480
2512.0000;1195.9620
2513.0000;1202.0830
2514.0000;1205.6700
2515.0000;1209.3440
2516.0000;1212.4050
2517.0000;1217.8330
2518.0000;1223.1890
2519.0000;1221.4340
2520.0000;1211.6320
2521.0000;1203.4750
2522.0000;1201.7520
2523.0000;1202.7800
2524.0000;1205.3360
2525.0000;1205.1780
2526.0000;1199.3630
2527.0000;1195.3050
2528.0000;1198.2440
2529.0000;1199.4540
2530.0000;1192.0920
2531.0000;1183.9740
2532.0000;1182.7780
2533.0000;1181.9290
2534.0000;1170.0230
2535.0000;1162.3980
2536.0000;1173.0340
2537.0000;1191.4980
2538.0000;1198.1440
2539.0000;1195.0350
2540.0000;1190.9240
2541.0000;1186.0550
2542.0000;1184.2730
2543.0000;1185.6890
2544.0000;1186.3200
2545.0000;1186.4840
2546.0000;1187.7920
2547.0000;1189.6230
2548.0000;1189.1460
2549.0000;1186.3750
2550.0000;1185.7590
2551.0000;1188.2780
2552.0000;1190.0870
2553.0000;1190.0290
2554.0000;1191.5290
2555.0000;1195.5000
2556.0000;1195.6280
2557.0000;1189.0160
2558.0000;1182.4620
2559.0000;1180.6310
2560.0000;1181.4440
2561.0000;1183.4390
2562.0000;1184.5750
2563.0000;1181.6160
2564.0000;1178.6690
2565.0000;1179.1570
2566.0000;1181.5540
2567.0000;1184.3950
2568.0000;1185.7090
2569.0000;1181.4550
2570.0000;1178.5350
2571.0000;1189.7590
2572.0000;1201.9720
2573.0000;1195.2000
2574.0000;1177.9840
2575.0000;1172.2020
2576.0000;1176.1350
2577.0000;1179.3480
2578.0000;1182.0920
2579.0000;1183.8810
2580.0000;1184.1270
2581.0000;1184.4030
2582.0000;1183.7590
2583.0000;1179.3120
2584.0000;1172.9780
2585.0000;1171.4710
2586.0000;1176.6990
2587.0000;1183.4300
2588.0000;1188.7690
2589.0000;1189.1110
2590.0000;1183.5120
2591.0000;1180.5390
2592.0000;1183.6910
2593.0000;1182.1260
2594.0000;1172.3500
2595.0000;1172.8110
2596.0000;1191.7290
2597.0000;1207.0530
2598.0000;1205.4340
2599.0000;1196.2630
2600.0000;1185.5710
2601.0000;1179.9260
2602.0000;1186.7590
2603.0000;1194.4410
2604.0000;1191.9830
2605.0000;1183.9980
2606.0000;1173.1970
2607.0000;1167.4950
2608.0000;1175.8410
2609.0000;1185.7120
2610.0000;1177.7620
2611.0000;1168.2520
2612.0000;1177.9640
2613.0000;1192.8280
2614.0000;1192.8230
2615.0000;1185.9930
2616.0000;1185.7930
2617.0000;1189.3650
2618.0000;1195.4370
2619.0000;1199.1560
2620.0000;1192.5190
2621.0000;1180.9360
2622.0000;1177.9430
2623.0000;1182.3110
2624.0000;1183.9770
2625.0000;1184.5810
2626.0000;1187.3440
2627.0000;1191.6210
2628.0000;1196.5800
2629.0000;1200.5840
2630.0000;1204.3010
2631.0000;1205.7350
2632.0000;1203.4120
2633.0000;1198.2600
2634.0000;1197.4580
2635.0000;1201.0860
2636.0000;1202.6610
2637.0000;1199.9060
2638.0000;1189.7830
2639.0000;1176.0060
2640.0000;1177.0670
2641.0000;1194.9760
2642.0000;1201.7580
2643.0000;1190.0780
2644.0000;1182.8120
2645.0000;1186.1820
2646.0000;1190.0000
2647.0000;1191.0040
2648.0000;1190.5060
2649.0000;1188.6620
2650.0000;1187.8340
2651.0000;1189.4430
2652.0000;1194.9090
2653.0000;1204.1910
2654.0000;1211.3390
2655.0000;1212.9300
2656.0000;1207.7300
2657.0000;1196.3790
2658.0000;1186.6520
2659.0000;1184.8720
2660.0000;1190.4910
2661.0000;1202.1330
2662.0000;1207.6200
2663.0000;1197.7050
2664.0000;1186.8030
2665.0000;1185.9710
2666.0000;1189.0200
2667.0000;1192.3920
2668.0000;1194.1660
2669.0000;1191.7510
2670.0000;1187.8030
2671.0000;1184.5440
2672.0000;1182.8430
2673.0000;1182.8570
2674.0000;1186.6570
2675.0000;1195.4250
2676.0000;1200.2980
2677.0000;1194.0410
2678.0000;1185.5850
2679.0000;1185.0440
2680.0000;1184.3890
2681.0000;1175.8310
2682.0000;1170.3440
2683.0000;1177.5510
2684.0000;1181.2990
2685.0000;1163.4230
2686.0000;1147.0940
2687.0000;1156.3990
2688.0000;1170.1600
2689.0000;1162.7330
2690.0000;1154.6320
2691.0000;1168.3510
2692.0000;1180.5630
2693.0000;1166.3810
2694.0000;1150.1960
2695.0000;1158.1130
2696.0000;1174.4610
2697.0000;1180.7280
2698.0000;1180.5660
2699.0000;1179.4090
2700.0000;1174.4490
2701.0000;1167.2050
2702.0000;1160.4510
2703.0000;1156.0300
2704.0000;1157.0580
2705.0000;1163.6570
2706.0000;1170.3590
2707.0000;1168.1730
2708.0000;1163.3720
2709.0000;1164.9290
2710.0000;1168.9610
2711.0000;1171.2840
2712.0000;1173.3820
2713.0000;1177.7190
2714.0000;1180.3340
2715.0000;1179.2080
2716.0000;1175.1210
2717.0000;1171.1800
2718.0000;1167.5670
2719.0000;1161.5290
2720.0000;1162.8990
2721.0000;1181.8010
2722.0000;1200.2200
2723.0000;1197.9180
2724.0000;1183.4570
2725.0000;1172.1220
2726.0000;1166.5960
2727.0000;1171.1540
2728.0000;1178.3660
2729.0000;1174.8950
2730.0000;1168.6370
2731.0000;1167.2090
2732.0000;1169.5070
2733.0000;1174.6180
2734.0000;1178.0230
2735.0000;1174.0480
2736.0000;1168.0700
2737.0000;1166.9380
2738.0000;1168.1060
2739.0000;1168.3810
2740.0000;1169.0030
2741.0000;1170.4670
2742.0000;1170.3660
2743.0000;1167.0710
2744.0000;1161.7030
2745.0000;1154.6200
2746.0000;1154.3580
2747.0000;1168.8870
2748.0000;1180.8000
2749.0000;1174.2670
2750.0000;1163.0860
2751.0000;1160.6720
2752.0000;1164.8290
2753.0000;1175.7950
2754.0000;1181.9170
2755.0000;1173.6480
2756.0000;1160.9410
2757.0000;1153.1650
2758.0000;1153.7960
2759.0000;1165.8280
2760.0000;1174.0320
2761.0000;1165.6050
2762.0000;1155.7990
2763.0000;1155.2840
2764.0000;1160.1500
2765.0000;1168.2850
2766.0000;1170.3230
2767.0000;1159.9730
2768.0000;1155.5100
2769.0000;1167.1430
2770.0000;1172.3330
2771.0000;1160.0250
2772.0000;1148.1160
2773.0000;1146.2430
2774.0000;1147.4590
2775.0000;1149.3340
2776.0000;1150.8840
2777.0000;1150.9550
2778.0000;1152.2010
2779.0000;1155.4550
2780.0000;1161.0130
2781.0000;1167.6090
2782.0000;1172.2480
2783.0000;1172.4990
2784.0000;1168.4530
2785.0000;1161.7790
2786.0000;1162.8190
2787.0000;1172.4410
2788.0000;1177.9070
2789.0000;1174.6660
2790.0000;1165.2770
2791.0000;1153.0350
2792.0000;1145.4330
2793.0000;1146.1360
2794.0000;1149.0000
2795.0000;1153.5380
2796.0000;1158.4690
2797.0000;1162.2520
2798.0000;1165.0360
2799.0000;1166.1960
2800.0000;1169.0160
2801.0000;1171.1090
2802.0000;1168.3260
2803.0000;1163.6310
2804.0000;1166.7870
2805.0000;1173.2880
2806.0000;1171.7490
2807.0000;1165.2570
2808.0000;1160.8540
2809.0000;1160.9420
2810.0000;1167.4490
2811.0000;1176.3760
2812.0000;1182.1370
2813.0000;1181.4780
2814.0000;1173.2890
2815.0000;1165.0470
2816.0000;1169.4030
2817.0000;1176.1150
2818.0000;1170.9510
2819.0000;1165.7370
2820.0000;1171.7810
2821.0000;1179.0800
2822.0000;1178.4160
2823.0000;1175.9350
2824.0000;1176.8070
2825.0000;1174.4790
2826.0000;1165.7320
2827.0000;1157.3710
2828.0000;1153.7410
2829.0000;1160.5490
2830.0000;1179.1050
2831.0000;1189.4780
2832.0000;1180.9810
2833.0000;1180.8030
2834.0000;1197.5970
2835.0000;1207.0340
2836.0000;1200.7570
2837.0000;1192.1680
2838.0000;1185.4850
2839.0000;1175.9760
2840.0000;1165.7680
2841.0000;1156.1690
2842.0000;1152.6640
2843.0000;1161.0850
2844.0000;1178.1110
2845.0000;1185.9930
2846.0000;1182.3430
2847.0000;1178.9770
2848.0000;1176.2100
2849.0000;1176.2890
2850.0000;1177.5470
2851.0000;1173.4130
2852.0000;1169.6670
2853.0000;1177.1760
2854.0000;1185.8180
2855.0000;1178.1740
2856.0000;1165.0000
2857.0000;1161.0960
2858.0000;1164.5010
2859.0000;1170.7180
2860.0000;1177.1170
2861.0000;1179.1160
2862.0000;1178.4640
2863.0000;1177.9670
2864.0000;1176.5950
2865.0000;1174.8370
2866.0000;1174.6760
2867.0000;1177.2790
2868.0000;1179.5890
2869.0000;1179.5980
2870.0000;1177.0460
2871.0000;1172.7450
2872.0000;1175.2390
2873.0000;1185.1360
2874.0000;1184.2470
2875.0000;1170.3410
2876.0000;1163.0090
2877.0000;1165.9980
2878.0000;1168.9140
2879.0000;1171.6990
2880.0000;1178.5800
2881.0000;1184.8220
2882.0000;1179.9470
2883.0000;1170.3180
2884.0000;1174.3650
2885.0000;1184.3530
2886.0000;1182.9920
2887.0000;1176.2020
2888.0000;1174.6550
2889.0000;1174.9300
2890.0000;1172.7320
2891.0000;1172.0450
2892.0000;1174.7870
2893.0000;1180.4330
2894.0000;1188.5000
2895.0000;1192.0450
2896.0000;1186.6780
2897.0000;1181.5550
2898.0000;1182.6050
2899.0000;1181.4920
2900.0000;1175.8740
2901.0000;1173.8150
2902.0000;1177.7600
2903.0000;1181.6300
2904.0000;1183.7220
2905.0000;1186.1050
2906.0000;1188.6880
2907.0000;1194.4430
2908.0000;1199.4940
2909.0000;1194.7970
2910.0000;1184.7570
2911.0000;1184.3780
2912.0000;1191.1700
2913.0000;1196.5360
2914.0000;1198.1280
2915.0000;1193.2210
2916.0000;1185.9280
2917.0000;1182.3860
2918.0000;1184.4800
2919.0000;1193.3680
2920.0000;1198.4120
2921.0000;1190.1550
2922.0000;1184.9760
2923.0000;1193.1750
2924.0000;1195.7140
2925.0000;1184.7700
2926.0000;1174.4940
2927.0000;1170.8910
2928.0000;1170.7690
2929.0000;1173.8490
2930.0000;1175.9860
2931.0000;1176.3470
2932.0000;1176.6460
2933.0000;1177.2870
2934.0000;1180.4010
2935.0000;1183.3860
2936.0000;1181.6190
2937.0000;1177.3190
2938.0000;1176.4710
2939.0000;1177.0380
2940.0000;1174.8880
2941.0000;1175.8420
2942.0000;1184.4610
2943.0000;1192.3400
2944.0000;1193.1630
2945.0000;1186.2530
2946.0000;1173.0750
2947.0000;1170.1510
2948.0000;1184.8900
2949.0000;1194.0380
2950.0000;1190.0040
2951.0000;1184.8850
2952.0000;1182.3490
2953.0000;1187.3300
2954.0000;1197.0350
2955.0000;1198.9770
2956.0000;1195.1830
2957.0000;1197.2310
2958.0000;1203.1430
2959.0000;1210.6890
2960.0000;1214.4480
2961.0000;1209.9290
2962.0000;1200.6260
2963.0000;1193.3040
2964.0000;1189.0230
2965.0000;1189.2280
2966.0000;1188.1890
2967.0000;1182.1230
2968.0000;1173.6050
2969.0000;1165.9210
2970.0000;1167.2020
2971.0000;1179.1520
2972.0000;1190.4980
2973.0000;1196.0840
2974.0000;1192.6400
2975.0000;1184.2020
2976.0000;1189.8720
2977.0000;1201.4320
2978.0000;1201.7500
2979.0000;1193.6190
2980.0000;1183.3300
2981.0000;1179.5290
2982.0000;1193.0410
2983.0000;1202.9220
2984.0000;1191.4560
2985.0000;1182.7960
2986.0000;1190.7510
2987.0000;1202.0470
2988.0000;1210.4660
2989.0000;1211.4840
2990.0000;1203.9840
2991.0000;1198.9110
2992.0000;1198.3470
2993.0000;1198.8200
2994.0000;1199.9430
2995.0000;1199.6040
2996.0000;1197.2330
2997.0000;1192.0310
2998.0000;1187.3490
2999.0000;1185.7170
3000.0000;1187.6960
3001.0000;1192.1450
3002.0000;1193.3830
3003.0000;1187.3180
3004.0000;1188.2530
3005.0000;1200.7640
3006.0000;1204.9660
3007.0000;1195.9850
3008.0000;1188.1350
3009.0000;1185.8450
3010.0000;1191.7970
3011.0000;1199.5790
3012.0000;1190.0250
3013.0000;1174.1750
3014.0000;1172.4900
3015.0000;1181.0170
3016.0000;1190.8260
3017.0000;1199.4070
3018.0000;1202.8490
3019.0000;1199.0260
3020.0000;1188.8700
3021.0000;1184.8850
3022.0000;1192.3500
3023.0000;1192.8100
3024.0000;1184.4980
3025.0000;1182.3130
3026.0000;1187.7470
3027.0000;1194.1500
3028.0000;1200.2170
3029.0000;1206.6800
3030.0000;1207.4310
3031.0000;1197.5140
3032.0000;1188.1870
3033.0000;1193.3260
3034.0000;1198.7880
3035.0000;1194.5370
3036.0000;1188.1800
3037.0000;1184.1370
3038.0000;1186.3590
3039.0000;1195.5550
3040.0000;1206.3260
3041.0000;1212.0830
3042.0000;1204.8570
3043.0000;1189.8660
3044.0000;1186.1460
3045.0000;1191.3670
3046.0000;1196.0510
3047.0000;1201.3990
3048.0000;1206.6720
3049.0000;1205.7810
3050.0000;1196.2170
3051.0000;1186.7990
3052.0000;1183.2870
3053.0000;1185.2990
3054.0000;1192.7190
3055.0000;1203.2270
3056.0000;1210.3900
3057.0000;1203.4860
3058.0000;1190.3620
3059.0000;1194.4420
3060.0000;1203.5650
3061.0000;1197.5970
3062.0000;1189.4760
3063.0000;1189.6450
3064.0000;1197.3920
3065.0000;1210.6460
3066.0000;1211.1710
3067.0000;1193.3440
3068.0000;1182.1380
3069.0000;1184.5410
3070.0000;1193.4960
3071.0000;1205.6600
3072.0000;1213.2400
3073.0000;1215.8000
3074.0000;1221.2230
3075.0000;1223.0460
3076.0000;1219.3080
3077.0000;1213.5360
3078.0000;1209.5600
3079.0000;1210.4970
3080.0000;1216.6650
3081.0000;1215.9640
3082.0000;1207.4170
3083.0000;1204.9220
3084.0000;1208.7900
3085.0000;1210.9870
3086.0000;1210.4440
3087.0000;1205.5020
3088.0000;1201.0050
3089.0000;1203.2450
3090.0000;1205.8180
3091.0000;1203.6020
3092.0000;1201.2060
3093.0000;1201.0900
3094.0000;1206.3820
3095.0000;1216.2000
3096.0000;1225.2590
3097.0000;1231.0500
3098.0000;1239.0430
3099.0000;1241.9380
3100.0000;1234.5520
3101.0000;1223.3050
3102.0000;1218.4100
3103.0000;1217.6600
3104.0000;1219.1180
3105.0000;1226.5550
3106.0000;1238.3930
3107.0000;1244.9110
3108.0000;1243.0900
3109.0000;1243.0450
3110.0000;1243.1380
3111.0000;1240.8850
3112.0000;1236.2330
3113.0000;1228.4610
3114.0000;1224.9520
3115.0000;1230.9230
3116.0000;1238.3620
3117.0000;1240.6310
3118.0000;1237.4020
3119.0000;1229.5020
3120.0000;1224.6550
3121.0000;1224.4510
3122.0000;1223.6470
3123.0000;1222.6540
3124.0000;1219.0940
3125.0000;1218.6420
3126.0000;1226.5020
3127.0000;1233.3540
3128.0000;1232.3130
3129.0000;1225.9370
3130.0000;1217.5060
3131.0000;1215.4020
3132.0000;1220.5410
3133.0000;1220.4460
3134.0000;1218.0130
3135.0000;1221.6900
3136.0000;1227.4880
3137.0000;1230.6800
3138.0000;1230.7490
3139.0000;1228.1460
3140.0000;1227.3440
3141.0000;1230.7930
3142.0000;1235.1610
3143.0000;1238.2760
3144.0000;1238.9340
3145.0000;1237.0990
3146.0000;1236.0290
3147.0000;1235.8440
3148.0000;1237.4330
3149.0000;1236.5780
3150.0000;1230.0000
3151.0000;1225.9280
3152.0000;1227.9450
3153.0000;1226.9060
3154.0000;1222.1980
3155.0000;1221.5070
3156.0000;1223.1360
3157.0000;1217.8360
3158.0000;1214.0910
3159.0000;1221.8620
3160.0000;1233.1950
3161.0000;1239.9650
3162.0000;1240.3050
3163.0000;1233.8730
3164.0000;1230.5960
3165.0000;1231.7750
3166.0000;1226.7170
3167.0000;1222.0020
3168.0000;1232.3620
3169.0000;1245.0450
3170.0000;1243.4730
3171.0000;1238.5920
3172.0000;1239.4600
3173.0000;1238.4780
3174.0000;1235.2860
3175.0000;1241.5120
3176.0000;1254.5370
3177.0000;1258.7800
3178.0000;1254.9720
3179.0000;1253.0120
3180.0000;1251.9360
3181.0000;1252.9400
3182.0000;1253.9980
3183.0000;1253.8590
3184.0000;1260.2630
3185.0000;1272.0000
3186.0000;1275.2240
3187.0000;1270.0390
3188.0000;1271.3210
3189.0000;1271.0630
3190.0000;1257.2890
3191.0000;1249.8620
3192.0000;1263.3590
3193.0000;1271.1920
3194.0000;1263.4690
3195.0000;1271.6740
3196.0000;1291.7640
3197.0000;1288.6040
3198.0000;1269.9290
3199.0000;1264.9320
3200.0000;1265.8630
3201.0000;1264.0220
3202.0000;1260.8190
3203.0000;1256.1850
3204.0000;1256.2470
3205.0000;1262.2340
3206.0000;1268.4180
3207.0000;1272.6140
3208.0000;1276.3370
3209.0000;1276.1120
3210.0000;1270.8730
3211.0000;1266.9240
3212.0000;1269.7740
3213.0000;1270.8960
3214.0000;1267.4370
3215.0000;1261.4910
3216.0000;1257.0100
3217.0000;1259.7170
3218.0000;1267.6590
3219.0000;1274.8210
3220.0000;1275.4920
3221.0000;1265.7830
3222.0000;1261.0380
3223.0000;1267.7300
3224.0000;1274.0200
3225.0000;1277.0470
3226.0000;1277.4330
3227.0000;1276.4410
3228.0000;1280.4320
3229.0000;1281.1210
3230.0000;1272.7880
3231.0000;1268.2460
3232.0000;1272.6150
3233.0000;1273.9860
3234.0000;1271.4600
3235.0000;1271.2200
3236.0000;1271.7900
3237.0000;1270.2230
3238.0000;1267.3480
3239.0000;1263.9000
3240.0000;1265.1700
3241.0000;1272.4590
3242.0000;1277.3350
3243.0000;1278.2880
3244.0000;1282.4760
3245.0000;1287.6030
3246.0000;1291.7150
3247.0000;1293.7060
3248.0000;1294.2730
3249.0000;1294.4250
3250.0000;1294.9580
3251.0000;1295.9060
3252.0000;1294.7340
3253.0000;1282.4680
3254.0000;1272.9950
3255.0000;1286.1970
3256.0000;1302.5160
3257.0000;1303.0630
3258.0000;1302.9860
3259.0000;1306.3920
3260.0000;1307.2890
3261.0000;1305.4290
3262.0000;1305.0920
3263.0000;1303.6450
3264.0000;1296.7900
3265.0000;1296.3790
3266.0000;1308.5750
3267.0000;1314.5530
3268.0000;1310.3690
3269.0000;1315.0280
3270.0000;1325.1510
3271.0000;1329.9760
3272.0000;1328.2020
3273.0000;1322.4530
3274.0000;1313.1220
3275.0000;1303.9160
3276.0000;1302.7220
3277.0000;1310.6600
3278.0000;1316.6980
3279.0000;1318.8000
3280.0000;1316.3290
3281.0000;1315.9800
3282.0000;1325.2160
3283.0000;1330.7860
3284.0000;1328.2620
3285.0000;1329.9970
3286.0000;1335.8110
3287.0000;1340.3070
3288.0000;1343.6060
3289.0000;1349.6130
3290.0000;1345.1720
3291.0000;1326.4870
3292.0000;1323.8250
3293.0000;1341.8620
3294.0000;1349.5570
3295.0000;1345.2130
3296.0000;1339.0280
3297.0000;1332.8430
3298.0000;1331.6750
3299.0000;1327.9170
3300.0000;1320.0640
3301.0000;1318.7110
3302.0000;1323.6440
3303.0000;1322.9990
3304.0000;1321.9390
3305.0000;1327.2810
3306.0000;1333.7560
3307.0000;1337.4020
3308.0000;1335.8450
3309.0000;1329.2120
3310.0000;1322.6940
3311.0000;1320.7000
3312.0000;1327.4500
3313.0000;1334.7560
3314.0000;1333.7760
3315.0000;1330.8340
3316.0000;1329.4200
3317.0000;1334.2940
3318.0000;1341.9030
3319.0000;1340.1570
3320.0000;1337.9930
3321.0000;1347.2950
3322.0000;1352.4090
3323.0000;1346.5980
3324.0000;1348.6890
3325.0000;1356.8960
3326.0000;1352.3650
3327.0000;1345.1890
3328.0000;1353.7790
3329.0000;1358.2190
3330.0000;1347.2560
3331.0000;1335.2750
3332.0000;1331.7950
3333.0000;1346.0280
3334.0000;1370.1580
3335.0000;1386.9110
3336.0000;1388.4940
3337.0000;1373.9010
3338.0000;1363.8330
3339.0000;1367.6720
3340.0000;1375.6180
3341.0000;1382.7390
3342.0000;1381.4590
3343.0000;1376.3090
3344.0000;1374.2270
3345.0000;1373.9690
3346.0000;1375.0780
3347.0000;1372.4050
3348.0000;1369.9080
3349.0000;1378.6880
3350.0000;1386.3770
3351.0000;1379.9850
3352.0000;1377.1160
3353.0000;1384.1470
3354.0000;1387.3750
3355.0000;1385.5640
3356.0000;1383.6750
3357.0000;1382.0870
3358.0000;1381.2030
3359.0000;1392.3130
3360.0000;1415.3360
3361.0000;1425.7560
3362.0000;1422.2330
3363.0000;1429.4000
3364.0000;1436.0220
3365.0000;1433.6940
3366.0000;1427.4760
3367.0000;1420.8500
3368.0000;1410.1670
3369.0000;1401.4060
3370.0000;1401.6160
3371.0000;1412.1740
3372.0000;1429.0170
3373.0000;1433.0430
3374.0000;1417.9310
3375.0000;1413.1550
3376.0000;1418.9780
3377.0000;1413.6170
3378.0000;1411.8140
3379.0000;1426.5650
3380.0000;1442.6280
3381.0000;1449.1470
3382.0000;1446.5390
3383.0000;1438.3290
3384.0000;1441.2280
3385.0000;1446.3960
3386.0000;1444.5650
3387.0000;1439.5930
3388.0000;1434.8920
3389.0000;1438.3370
3390.0000;1447.9900
3391.0000;1455.1170
3392.0000;1458.3540
3393.0000;1458.2470
3394.0000;1453.6330
3395.0000;1446.7780
3396.0000;1443.6250
3397.0000;1448.1710
3398.0000;1462.8920
3399.0000;1472.4610
3400.0000;1464.4210
3401.0000;1460.6740
3402.0000;1466.3560
3403.0000;1468.0400
3404.0000;1467.3440
3405.0000;1468.9270
3406.0000;1473.2350
3407.0000;1479.8740
3408.0000;1484.5580
3409.0000;1484.0580
3410.0000;1477.1080
3411.0000;1468.8210
3412.0000;1466.3390
3413.0000;1470.9610
3414.0000;1480.1730
3415.0000;1481.0510
3416.0000;1474.9130
3417.0000;1477.3510
3418.0000;1484.4410
3419.0000;1491.5830
3420.0000;1495.9600
3421.0000;1496.0820
3422.0000;1496.9680
3423.0000;1501.0740
3424.0000;1514.3000
3425.0000;1521.4440
3426.0000;1511.9150
3427.0000;1506.0010
3428.0000;1509.0850
3429.0000;1509.9250
3430.0000;1511.8920
3431.0000;1519.0410
3432.0000;1526.7190
3433.0000;1531.3680
3434.0000;1534.9910
3435.0000;1536.2870
3436.0000;1535.2410
3437.0000;1536.2210
3438.0000;1544.3820
3439.0000;1549.2620
3440.0000;1546.8160
3441.0000;1543.5680
3442.0000;1541.7290
3443.0000;1545.3420
3444.0000;1544.5100
3445.0000;1533.6660
3446.0000;1532.8490
3447.0000;1543.2690
3448.0000;1546.3570
3449.0000;1546.1430
3450.0000;1549.1980
3451.0000;1553.9480
3452.0000;1558.4460
3453.0000;1556.6900
3454.0000;1553.2000
3455.0000;1561.8510
3456.0000;1571.0270
3457.0000;1571.7860
3458.0000;1568.5300
3459.0000;1564.8150
3460.0000;1570.6300
3461.0000;1576.5860
3462.0000;1569.7210
3463.0000;1559.7710
3464.0000;1554.4730
3465.0000;1561.2470
3466.0000;1576.9000
3467.0000;1590.0750
3468.0000;1594.8940
3469.0000;1589.8040
3470.0000;1587.3580
3471.0000;1589.9880
3472.0000;1590.9070
3473.0000;1589.7660
3474.0000;1586.2630
3475.0000;1589.5280
3476.0000;1600.4550
3477.0000;1600.2270
3478.0000;1594.6680
3479.0000;1603.2160
3480.0000;1610.9310
3481.0000;1608.6180
3482.0000;1605.8420
3483.0000;1603.1750
3484.0000;1594.7270
3485.0000;1590.9090
3486.0000;1600.0970
3487.0000;1610.1000
3488.0000;1612.7550
3489.0000;1602.8130
3490.0000;1594.0870
3491.0000;1610.4870
3492.0000;1624.4620
3493.0000;1621.2120
3494.0000;1618.0490
3495.0000;1618.9000
3496.0000;1627.1180
3497.0000;1636.7130
3498.0000;1642.0960
3499.0000;1645.4010
3500.0000;1646.6600
3501.0000;1650.0520
3502.0000;1651.4670
3503.0000;1648.2980
3504.0000;1650.1230
3505.0000;1656.5830
3506.0000;1645.8240
3507.0000;1633.9170
3508.0000;1648.8490
3509.0000;1662.3410
3510.0000;1659.3300
3511.0000;1661.4220
3512.0000;1664.7610
3513.0000;1656.9360
3514.0000;1653.4640
3515.0000;1664.4170
3516.0000;1674.9730
3517.0000;1681.2840
3518.0000;1691.5820
3519.0000;1692.1010
3520.0000;1676.0670
3521.0000;1673.0310
3522.0000;1688.8100
3523.0000;1701.7560
3524.0000;1707.8390
3525.0000;1706.0870
3526.0000;1699.0950
3527.0000;1692.0310
3528.0000;1692.0410
3529.0000;1696.9130
3530.0000;1697.6760
3531.0000;1702.6580
3532.0000;1712.4560
3533.0000;1714.1740
3534.0000;1709.0030
3535.0000;1706.9080
3536.0000;1713.3580
3537.0000;1729.3220
3538.0000;1734.4290
3539.0000;1728.2000
3540.0000;1727.1170
3541.0000;1729.8620
3542.0000;1735.8510
3543.0000;1730.2530
3544.0000;1718.5010
3545.0000;1726.9660
3546.0000;1738.0170
3547.0000;1733.7360
3548.0000;1730.3790
3549.0000;1729.9470
3550.0000;1722.7000
3551.0000;1718.8060
3552.0000;1726.9350
3553.0000;1731.9430
3554.0000;1731.4270
3555.0000;1740.9590
3556.0000;1750.9170
3557.0000;1750.2480
3558.0000;1742.0460
3559.0000;1732.7730
3560.0000;1738.5000
3561.0000;1752.8240
3562.0000;1761.8780
3563.0000;1767.5710
3564.0000;1769.0880
3565.0000;1769.5950
3566.0000;1766.2950
3567.0000;1757.4780
3568.0000;1756.6280
3569.0000;1768.2330
3570.0000;1779.4480
3571.0000;1786.3460
3572.0000;1789.3040
3573.0000;1784.6590
3574.0000;1774.8290
3575.0000;1770.3820
3576.0000;1773.8730
3577.0000;1782.6110
3578.0000;1784.9610
3579.0000;1777.2520
3580.0000;1780.3300
3581.0000;1792.4200
3582.0000;1804.2540
3583.0000;1812.2770
3584.0000;1812.2400
3585.0000;1802.2910
3586.0000;1792.6120
3587.0000;1801.2690
3588.0000;1811.8280
3589.0000;1813.4260
3590.0000;1813.9620
3591.0000;1811.9470
3592.0000;1806.2730
3593.0000;1808.9250
3594.0000;1823.2440
3595.0000;1835.2660
3596.0000;1839.0500
3597.0000;1833.0380
3598.0000;1836.7170
3599.0000;1855.8780
3600.0000;1866.5130
3601.0000;1866.6620
3602.0000;1864.5560
3603.0000;1863.9880
3604.0000;1868.0180
3605.0000;1871.9350
3606.0000;1878.3790
3607.0000;1891.2550
3608.0000;1897.8870
3609.0000;1894.4500
3610.0000;1896.3370
3611.0000;1900.4380
3612.0000;1902.5390
3613.0000;1899.8880
3614.0000;1892.6430
3615.0000;1882.7560
3616.0000;1881.3670
3617.0000;1896.0290
3618.0000;1902.0130
3619.0000;1896.5600
3620.0000;1910.9900
3621.0000;1920.0930
3622.0000;1902.5510
3623.0000;1900.8640
3624.0000;1916.9790
3625.0000;1915.1900
3626.0000;1910.7010
3627.0000;1916.2290
3628.0000;1925.1050
3629.0000;1931.7000
3630.0000;1928.1160
3631.0000;1925.2200
3632.0000;1931.9680
3633.0000;1943.1880
3634.0000;1953.3190
3635.0000;1958.0990
3636.0000;1956.5320
3637.0000;1952.2300
3638.0000;1957.1050
3639.0000;1962.1490
3640.0000;1949.4890
3641.0000;1945.2970
3642.0000;1957.1860
3643.0000;1956.6040
3644.0000;1954.5710
3645.0000;1968.0580
3646.0000;1981.3550
3647.0000;1986.6250
3648.0000;1986.2860
3649.0000;1986.6630
3650.0000;1996.6680
3651.0000;1998.3750
3652.0000;1992.6500
3653.0000;1999.4830
3654.0000;2006.5840
3655.0000;2005.3630
3656.0000;2009.7620
3657.0000;2015.9950
3658.0000;2012.4220
3659.0000;2013.7180
3660.0000;2024.1030
3661.0000;2016.0160
3662.0000;2000.8110
3663.0000;2003.1770
3664.0000;2009.3610
3665.0000;2014.9820
3666.0000;2028.9250
3667.0000;2038.8120
3668.0000;2033.8380
3669.0000;2028.5110
3670.0000;2028.5190
3671.0000;2032.6760
3672.0000;2040.5110
3673.0000;2047.7670
3674.0000;2036.6640
3675.0000;2021.0620
3676.0000;2034.0760
3677.0000;2051.8350
3678.0000;2058.7420
3679.0000;2068.0010
3680.0000;2075.1290
3681.0000;2078.3090
3682.0000;2069.8260
3683.0000;2055.7680
3684.0000;2061.6480
3685.0000;2073.8820
3686.0000;2075.8460
3687.0000;2084.6850
3688.0000;2092.5770
3689.0000;2080.6580
3690.0000;2074.1000
3691.0000;2086.9040
3692.0000;2092.9730
3693.0000;2091.9090
3694.0000;2089.5460
3695.0000;2088.3430
3696.0000;2090.6820
3697.0000;2096.3070
3698.0000;2103.0850
3699.0000;2108.5140
3700.0000;2122.3250
3701.0000;2137.0120
3702.0000;2137.6980
3703.0000;2141.5390
3704.0000;2154.6160
3705.0000;2150.1020
3706.0000;2134.0140
3707.0000;2123.6990
3708.0000;2125.3180
3709.0000;2139.3650
3710.0000;2157.6380
3711.0000;2160.5420
3712.0000;2139.7530
3713.0000;2145.7660
3714.0000;2167.6620
3715.0000;2162.8350
3716.0000;2165.0380
3717.0000;2183.0890
3718.0000;2189.8010
3719.0000;2180.6620
3720.0000;2160.8610
3721.0000;2159.2680
3722.0000;2176.8240
3723.0000;2185.6950
3724.0000;2188.1090
3725.0000;2186.4360
3726.0000;2194.1190
3727.0000;2202.6410
3728.0000;2199.2420
3729.0000;2206.2960
3730.0000;2220.9980
3731.0000;2213.6060
3732.0000;2205.6840
3733.0000;2214.6830
3734.0000;2215.6840
3735.0000;2216.8590
3736.0000;2237.1830
3737.0000;2240.1890
3738.0000;2221.6090
3739.0000;2228.6270
3740.0000;2240.8020
3741.0000;2239.0350
3742.0000;2242.5210
3743.0000;2249.6720
3744.0000;2254.3180
3745.0000;2246.8870
3746.0000;2232.2580
3747.0000;2238.8020
3748.0000;2255.0160
3749.0000;2262.1300
3750.0000;2257.3760
3751.0000;2246.3680
3752.0000;2246.8170
3753.0000;2252.2540
3754.0000;2260.6590
3755.0000;2283.1400
3756.0000;2296.4920
3757.0000;2283.3130
3758.0000;2280.6200
3759.0000;2290.0760
3760.0000;2294.9670
3761.0000;2297.7280
3762.0000;2299.5830
3763.0000;2306.7600
3764.0000;2316.6970
3765.0000;2326.2520
3766.0000;2345.0550
3767.0000;2360.5150
3768.0000;2354.2670
3769.0000;2349.5390
3770.0000;2355.2480
3771.0000;2350.6360
3772.0000;2347.1280
3773.0000;2355.0840
3774.0000;2367.4820
3775.0000;2378.7000
3776.0000;2384.8800
3777.0000;2388.3740
3778.0000;2391.0030
3779.0000;2396.2260
3780.0000;2399.9150
3781.0000;2400.2820
3782.0000;2401.9690
3783.0000;2403.3430
3784.0000;2401.9400
3785.0000;2401.9590
3786.0000;2403.5890
3787.0000;2401.1880
3788.0000;2404.8800
3789.0000;2417.5410
3790.0000;2422.3900
3791.0000;2425.1730
3792.0000;2436.7380
3793.0000;2443.8630
3794.0000;2444.7710
3795.0000;2448.3650
3796.0000;2455.4700
3797.0000;2463.1750
3798.0000;2457.7570
3799.0000;2449.8480
3800.0000;2452.5200
3801.0000;2448.4490
3802.0000;2442.0310
3803.0000;2443.7610
3804.0000;2456.9300
3805.0000;2474.6830
3806.0000;2481.7950
3807.0000;2482.4530
3808.0000;2483.8730
3809.0000;2494.0070
3810.0000;2497.9460
3811.0000;2480.3240
3812.0000;2467.0640
3813.0000;2470.5650
3814.0000;2495.0890
3815.0000;2496.5690
3816.0000;2467.9190
3817.0000;2473.9240
3818.0000;2490.4400
3819.0000;2493.0620
3820.0000;2496.4180
3821.0000;2493.8850
3822.0000;2479.4440
3823.0000;2483.9660
3824.0000;2501.6330
3825.0000;2490.6570
3826.0000;2485.4920
3827.0000;2500.7970
3828.0000;2516.0920
3829.0000;2519.7090
3830.0000;2506.9320
3831.0000;2501.0460
3832.0000;2505.4500
3833.0000;2514.8780
3834.0000;2526.0410
3835.0000;2532.7740
3836.0000;2532.2600
3837.0000;2532.3990
3838.0000;2537.7210
3839.0000;2540.9960
3840.0000;2545.8290
3841.0000;2554.5280
3842.0000;2564.5320
3843.0000;2566.0240
3844.0000;2552.5860
3845.0000;2545.9490
3846.0000;2554.5120
3847.0000;2572.7450
3848.0000;2586.7190
3849.0000;2588.9050
3850.0000;2594.4870
3851.0000;2597.0320
3852.0000;2596.8960
3853.0000;2611.2080
3854.0000;2625.7820
3855.0000;2623.8380
3856.0000;2630.1410
3857.0000;2639.0630
3858.0000;2633.9930
3859.0000;2627.8260
3860.0000;2625.8000
3861.0000;2621.3970
3862.0000;2631.2310
3863.0000;2653.7580
3864.0000;2650.3280
3865.0000;2642.1100
3866.0000;2651.1630
3867.0000;2653.1480
3868.0000;2651.1870
3869.0000;2654.5150
3870.0000;2650.9550
3871.0000;2647.1150
3872.0000;2661.4460
3873.0000;2663.3520
3874.0000;2651.9420
3875.0000;2665.8820
3876.0000;2677.9160
3877.0000;2672.5400
3878.0000;2663.0440
3879.0000;2655.8420
3880.0000;2658.4900
3881.0000;2678.3690
3882.0000;2695.3830
3883.0000;2684.7510
3884.0000;2686.6660
3885.0000;2701.5310
3886.0000;2709.8660
3887.0000;2703.3140
3888.0000;2690.8980
3889.0000;2705.8060
3890.0000;2718.3560
3891.0000;2713.3570
3892.0000;2708.3650
3893.0000;2702.7820
3894.0000;2699.8720
3895.0000;2708.6300
3896.0000;2721.5530
3897.0000;2727.4030
3898.0000;2726.5210
3899.0000;2724.3390
3900.0000;2730.7370
3901.0000;2727.4950
3902.0000;2720.6680
3903.0000;2732.3060
3904.0000;2734.6830
3905.0000;2725.4610
3906.0000;2730.6620
3907.0000;2738.5560
3908.0000;2744.4350
3909.0000;2761.0600
3910.0000;2767.8400
3911.0000;2757.1600
3912.0000;2762.2880
3913.0000;2771.7940
3914.0000;2772.5060
3915.0000;2781.7260
3916.0000;2792.5310
3917.0000;2794.3740
3918.0000;2788.0410
3919.0000;2781.7430
3920.0000;2788.8320
3921.0000;2796.1810
3922.0000;2804.0980
3923.0000;2822.7110
3924.0000;2840.5630
3925.0000;2846.3980
3926.0000;2834.3680
3927.0000;2831.2100
3928.0000;2845.5090
3929.0000;2842.0200
3930.0000;2835.3750
3931.0000;2835.5480
3932.0000;2832.3370
3933.0000;2829.7500
3934.0000;2829.9350
3935.0000;2822.1830
3936.0000;2827.3130
3937.0000;2859.0590
3938.0000;2865.4240
3939.0000;2853.4690
3940.0000;2851.3770
3941.0000;2853.7440
3942.0000;2860.7800
3943.0000;2870.2460
3944.0000;2873.3220
3945.0000;2875.4270
3946.0000;2893.6470
3947.0000;2896.2060
3948.0000;2883.3850
3949.0000;2885.8360
3950.0000;2890.9740
3951.0000;2894.6400
3952.0000;2898.6290
3953.0000;2906.1690
3954.0000;2912.1330
3955.0000;2899.4100
3956.0000;2889.5660
3957.0000;2893.1170
3958.0000;2883.5730
3959.0000;2874.0690
3960.0000;2873.1460
3961.0000;2868.5110
3962.0000;2870.3950
3963.0000;2883.3080
3964.0000;2898.8730
3965.0000;2903.0250
3966.0000;2891.4140
3967.0000;2903.0100
3968.0000;2914.4780
3969.0000;2898.0830
3970.0000;2887.9230
3971.0000;2887.4060
3972.0000;2890.9320
3973.0000;2889.2790
3974.0000;2894.7420
3975.0000;2921.2570
3976.0000;2927.3250
3977.0000;2918.0910
3978.0000;2922.3450
3979.0000;2921.4870
3980.0000;2916.6720
3981.0000;2916.2800
3982.0000;2916.6150
3983.0000;2921.8210
3984.0000;2938.2840
3985.0000;2930.4330
3986.0000;2910.2660
3987.0000;2924.4150
3988.0000;2929.8320
3989.0000;2927.0880
3990.0000;2951.7430
3991.0000;2950.0250
3992.0000;2927.4690
3993.0000;2945.9760
3994.0000;2957.8340
3995.0000;2952.1170
3996.0000;2953.6780
3997.0000;2961.3440
3998.0000;2970.2480
3999.0000;2967.7350
4000.0000;2973.6660
4001.0000;2991.5280
4002.0000;3006.9860
4003.0000;3005.6290
4004.0000;2994.2730
4005.0000;3010.8140
4006.0000;3021.2010
4007.0000;3014.7250
4008.0000;3014.1000
4009.0000;3014.5730
4010.0000;3017.2270
4011.0000;3027.6180
4012.0000;3027.5280
4013.0000;3021.7920
4014.0000;3051.3090
4015.0000;3067.4890
4016.0000;3055.4130
4017.0000;3057.7610
4018.0000;3058.7410
4019.0000;3057.7940
4020.0000;3069.9700
4021.0000;3072.2900
4022.0000;3061.1560
4023.0000;3058.2600
4024.0000;3062.4880
4025.0000;3071.1910
4026.0000;3079.7930
4027.0000;3076.0340
4028.0000;3062.9490
4029.0000;3061.3250
4030.0000;3065.5060
4031.0000;3069.9500
4032.0000;3067.3760
4033.0000;3077.5000
4034.0000;3090.3230
4035.0000;3070.0510
4036.0000;3060.1200
4037.0000;3066.1890
4038.0000;3057.2230
4039.0000;3048.8210
4040.0000;3050.7180
4041.0000;3067.3210
4042.0000;3075.0190
4043.0000;3073.7520
4044.0000;3084.8640
4045.0000;3074.8860
4046.0000;3059.0700
4047.0000;3078.0140
4048.0000;3081.2450
4049.0000;3072.9890
4050.0000;3081.8430
4051.0000;3092.4160
4052.0000;3094.4580
4053.0000;3083.8100
4054.0000;3087.2990
4055.0000;3100.0670
4056.0000;3105.8600
4057.0000;3115.1990
4058.0000;3116.2440
4059.0000;3102.4370
4060.0000;3112.5230
4061.0000;3122.8380
4062.0000;3109.9680
4063.0000;3125.4820
4064.0000;3140.5440
4065.0000;3129.0030
4066.0000;3123.7680
4067.0000;3125.3190
4068.0000;3134.7050
4069.0000;3163.9200
4070.0000;3177.8850
4071.0000;3160.9220
4072.0000;3150.7240
4073.0000;3145.7230
4074.0000;3146.8150
4075.0000;3150.2100
4076.0000;3155.6770
4077.0000;3159.4480
4078.0000;3158.7670
4079.0000;3152.0020
4080.0000;3142.4170
4081.0000;3136.1020
4082.0000;3127.4770
4083.0000;3114.6310
4084.0000;3097.1000
4085.0000;3094.5250
4086.0000;3105.3320
4087.0000;3112.7040
4088.0000;3103.6460
4089.0000;3087.8900
4090.0000;3084.8350
4091.0000;3104.3250
4092.0000;3110.0620
4093.0000;3078.5320
4094.0000;3079.0630
4095.0000;3104.3770
4096.0000;3127.3710
4097.0000;3109.4520
4098.0000;3096.7820
4099.0000;3114.2000
4100.0000;3121.6870
4101.0000;3117.7010
4102.0000;3105.5860
4103.0000;3098.4760
4104.0000;3094.5140
4105.0000;3091.5620
4106.0000;3084.8130
4107.0000;3085.5560
4108.0000;3081.4610
4109.0000;3053.4640
4110.0000;3025.2230
4111.0000;2999.7450
4112.0000;2975.2630
4113.0000;2954.1200
4114.0000;2928.5390
4115.0000;2894.5570
4116.0000;2867.0320
4117.0000;2846.4890
4118.0000;2827.5000
4119.0000;2803.0470
4120.0000;2771.0660
4121.0000;2733.2260
4122.0000;2694.1610
4123.0000;2662.0980
4124.0000;2639.1420
4125.0000;2612.9530
4126.0000;2572.2750
4127.0000;2536.8780
4128.0000;2526.0450
4129.0000;2496.3620
4130.0000;2448.8980
4131.0000;2399.6200
4132.0000;2373.3600
4133.0000;2358.1360
4134.0000;2331.4540
4135.0000;2277.4600
4136.0000;2221.1190
4137.0000;2177.8350
4138.0000;2132.1840
4139.0000;2091.0630
4140.0000;2059.5520
4141.0000;2033.0610
4142.0000;1990.9790
4143.0000;1945.6570
4144.0000;1911.7720
4145.0000;1855.2660
4146.0000;1819.2400
4147.0000;1820.8540
4148.0000;1775.7070
4149.0000;1738.6130
4150.0000;1730.4270
4151.0000;1699.5810
4152.0000;1674.2710
4153.0000;1659.9350
4154.0000;1640.3580
4155.0000;1627.5580
4156.0000;1612.9380
4157.0000;1584.7500
4158.0000;1575.8760
4159.0000;1560.4360
4160.0000;1519.8060
4161.0000;1502.8510
4162.0000;1494.7310
4163.0000;1484.0980
4164.0000;1475.4650
4165.0000;1459.3680
4166.0000;1446.4180
4167.0000;1455.5590
4168.0000;1455.7380
4169.0000;1450.5590
4170.0000;1452.7640
4171.0000;1454.2060
4172.0000;1449.4740
4173.0000;1439.3020
4174.0000;1437.9720
4175.0000;1432.8130
4176.0000;1423.1770
4177.0000;1422.3100
4178.0000;1423.5450
4179.0000;1422.4380
4180.0000;1416.3040
4181.0000;1405.8990
4182.0000;1403.7170
4183.0000;1413.6520
4184.0000;1406.4630
4185.0000;1401.5680
4186.0000;1406.2860
4187.0000;1402.3130
4188.0000;1402.4710
4189.0000;1404.9980
4190.0000;1401.4440
4191.0000;1412.0000
4192.0000;1420.9990
4193.0000;1412.7650
4194.0000;1415.8790
4195.0000;1423.2480
4196.0000;1428.0460
4197.0000;1432.0030
4198.0000;1414.8480
4199.0000;1392.4330
4200.0000;1399.0480
4201.0000;1403.1060
4202.0000;1400.9840
4203.0000;1398.1650
4204.0000;1410.9400
4205.0000;1417.8460
4206.0000;1409.2500
4207.0000;1401.8520
4208.0000;1412.0170
4209.0000;1424.2480
4210.0000;1409.6870
4211.0000;1409.6320
4212.0000;1411.0140
4213.0000;1402.3430
4214.0000;1415.2520
4215.0000;1419.5440
4216.0000;1407.7530
4217.0000;1404.9320
4218.0000;1402.0010
4219.0000;1395.5580
4220.0000;1385.6200
4221.0000;1379.4870
4222.0000;1389.1940
4223.0000;1408.3740
4224.0000;1401.7710
4225.0000;1393.3070
4226.0000;1396.5820
4227.0000;1409.1950
4228.0000;1407.8850
4229.0000;1394.4510
4230.0000;1383.8810
4231.0000;1394.0740
4232.0000;1398.2950
4233.0000;1391.2300
4234.0000;1403.8800
4235.0000;1404.6960
4236.0000;1258.0820
4237.0000;889.0335
4238.0000;472.9739
