Raman Shift ; Dark Subtracted #1
-2.0000;2164.0770
-1.0000;1956.9900
0.0000;1682.2160
1.0000;1366.7670
2.0000;1036.4880
3.0000;740.6326
4.0000;516.1695
5.0000;324.4954
6.0000;190.2583
7.0000;145.7216
8.0000;117.4350
9.0000;105.4350
10.0000;122.9245
11.0000;122.7774
12.0000;86.0988
13.0000;45.5726
14.0000;15.1457
15.0000;4.0431
16.0000;7.8489
17.0000;13.0599
18.0000;13.6381
19.0000;16.2714
20.0000;19.5531
21.0000;23.2441
22.0000;25.9279
23.0000;25.8880
24.0000;21.3863
25.0000;15.0033
26.0000;9.8563
27.0000;8.6373
28.0000;10.4110
29.0000;13.1904
30.0000;15.6072
31.0000;17.9910
32.0000;19.4440
33.0000;18.8996
34.0000;17.2568
35.0000;16.4421
36.0000;19.2435
37.0000;22.8197
38.0000;24.7004
39.0000;20.6801
40.0000;14.1861
41.0000;10.2465
42.0000;15.2999
43.0000;25.0092
44.0000;32.2984
45.0000;29.7521
46.0000;20.5728
47.0000;11.3978
48.0000;8.8359
49.0000;11.0003
50.0000;14.0826
51.0000;12.3908
52.0000;9.4248
53.0000;9.3222
54.0000;16.2377
55.0000;28.4588
56.0000;41.2518
57.0000;50.3217
58.0000;55.0556
59.0000;58.9629
60.0000;65.4203
61.0000;73.1372
62.0000;84.3625
63.0000;102.5204
64.0000;124.5559
65.0000;150.1477
66.0000;179.3756
67.0000;208.5969
68.0000;241.2458
69.0000;284.2333
70.0000;330.4160
71.0000;379.8918
72.0000;441.8715
73.0000;504.4882
74.0000;563.0773
75.0000;625.3470
76.0000;674.8964
77.0000;722.2881
78.0000;792.6735
79.0000;871.3228
80.0000;945.8771
81.0000;1018.8990
82.0000;1075.5960
83.0000;1129.4530
84.0000;1209.5810
85.0000;1302.5910
86.0000;1393.5900
87.0000;1488.1500
88.0000;1568.4200
89.0000;1641.0920
90.0000;1731.1420
91.0000;1823.8340
92.0000;1911.1040
93.0000;2009.9210
94.0000;2103.3850
95.0000;2194.0430
96.0000;2306.5840
97.0000;2425.9570
98.0000;2535.2330
99.0000;2650.2470
100.0000;2752.9980
101.0000;2831.9980
102.0000;2921.9400
103.0000;3006.4480
104.0000;3077.0230
105.0000;3152.1240
106.0000;3220.2740
107.0000;3281.6080
108.0000;3369.0000
109.0000;3467.6480
110.0000;3557.7170
111.0000;3643.8530
112.0000;3711.3750
113.0000;3757.6760
114.0000;3814.4700
115.0000;3873.6080
116.0000;3927.3370
117.0000;3990.4830
118.0000;4056.5220
119.0000;4114.2720
120.0000;4169.3540
121.0000;4213.3330
122.0000;4244.9080
123.0000;4279.6580
124.0000;4312.9590
125.0000;4344.9690
126.0000;4392.5740
127.0000;4453.0070
128.0000;4506.8750
129.0000;4544.1200
130.0000;4555.5320
131.0000;4551.5120
132.0000;4556.7910
133.0000;4571.9110
134.0000;4592.7790
135.0000;4623.4750
136.0000;4662.5490
137.0000;4701.7570
138.0000;4735.4620
139.0000;4758.4050
140.0000;4771.8690
141.0000;4789.9100
142.0000;4810.6170
143.0000;4826.1380
144.0000;4840.1220
145.0000;4848.4860
146.0000;4853.7260
147.0000;4864.4950
148.0000;4879.3310
149.0000;4894.0700
150.0000;4906.7520
151.0000;4915.4300
152.0000;4922.9730
153.0000;4937.5960
154.0000;4958.6980
155.0000;4977.4220
156.0000;4991.9340
157.0000;4997.5160
158.0000;4997.2940
159.0000;4999.1270
160.0000;5001.9300
161.0000;5002.3990
162.0000;4999.0660
163.0000;4992.0820
164.0000;4987.4820
165.0000;4991.8940
166.0000;5006.6110
167.0000;5024.8650
168.0000;5041.0830
169.0000;5052.2400
170.0000;5063.3130
171.0000;5080.6360
172.0000;5101.9370
173.0000;5121.1440
174.0000;5140.3710
175.0000;5154.0110
176.0000;5160.7900
177.0000;5164.3030
178.0000;5161.5600
179.0000;5157.4620
180.0000;5160.3080
181.0000;5169.1130
182.0000;5179.2920
183.0000;5186.7700
184.0000;5191.4140
185.0000;5198.9840
186.0000;5218.5030
187.0000;5244.5980
188.0000;5269.7390
189.0000;5287.5200
190.0000;5293.8490
191.0000;5295.6830
192.0000;5303.9080
193.0000;5312.5390
194.0000;5319.6980
195.0000;5325.6500
196.0000;5328.5260
197.0000;5329.9200
198.0000;5331.8350
199.0000;5333.7860
200.0000;5338.3350
201.0000;5350.0520
202.0000;5365.4260
203.0000;5378.0610
204.0000;5382.1760
205.0000;5379.0190
206.0000;5376.9380
207.0000;5385.7830
208.0000;5400.1110
209.0000;5413.9210
210.0000;5422.4330
211.0000;5425.9850
212.0000;5429.5470
213.0000;5439.2100
214.0000;5449.3840
215.0000;5459.4000
216.0000;5468.0220
217.0000;5474.5820
218.0000;5482.5920
219.0000;5496.8430
220.0000;5512.2430
221.0000;5528.0350
222.0000;5543.8220
223.0000;5557.3980
224.0000;5571.2500
225.0000;5589.7090
226.0000;5604.0550
227.0000;5613.9040
228.0000;5615.0660
229.0000;5612.7590
230.0000;5620.4670
231.0000;5647.0360
232.0000;5680.2240
233.0000;5708.0880
234.0000;5722.4970
235.0000;5726.9600
236.0000;5733.1650
237.0000;5746.9180
238.0000;5758.1750
239.0000;5765.7440
240.0000;5767.9420
241.0000;5764.3510
242.0000;5758.8570
243.0000;5751.6630
244.0000;5745.1220
245.0000;5742.6290
246.0000;5745.9440
247.0000;5753.9710
248.0000;5764.2010
249.0000;5775.6930
250.0000;5787.2200
251.0000;5799.5310
252.0000;5810.1990
253.0000;5818.0420
254.0000;5825.1240
255.0000;5829.4240
256.0000;5831.9000
257.0000;5836.5820
258.0000;5842.1590
259.0000;5847.6240
260.0000;5853.1680
261.0000;5857.8170
262.0000;5863.7140
263.0000;5874.8080
264.0000;5888.3890
265.0000;5900.2970
266.0000;5907.6180
267.0000;5909.1750
268.0000;5910.8190
269.0000;5919.4940
270.0000;5932.0730
271.0000;5946.7050
272.0000;5963.0890
273.0000;5978.6520
274.0000;5994.2570
275.0000;6015.1550
276.0000;6033.0280
277.0000;6046.0000
278.0000;6054.5280
279.0000;6055.6910
280.0000;6057.5200
281.0000;6068.1070
282.0000;6080.3230
283.0000;6092.0520
284.0000;6102.7210
285.0000;6109.5300
286.0000;6113.4890
287.0000;6113.1110
288.0000;6112.1060
289.0000;6119.2330
290.0000;6141.2800
291.0000;6166.4600
292.0000;6186.5120
293.0000;6195.4660
294.0000;6197.3130
295.0000;6202.2970
296.0000;6212.6660
297.0000;6220.4000
298.0000;6221.5020
299.0000;6213.3550
300.0000;6205.6560
301.0000;6211.8440
302.0000;6233.5690
303.0000;6256.7700
304.0000;6267.7210
305.0000;6263.5090
306.0000;6256.1290
307.0000;6260.3150
308.0000;6274.5610
309.0000;6289.1790
310.0000;6297.4550
311.0000;6299.1090
312.0000;6300.3290
313.0000;6309.3900
314.0000;6322.3330
315.0000;6333.7140
316.0000;6341.0160
317.0000;6343.4310
318.0000;6345.3090
319.0000;6352.8890
320.0000;6360.9580
321.0000;6367.9730
322.0000;6371.1250
323.0000;6372.9230
324.0000;6379.8090
325.0000;6396.7840
326.0000;6417.7260
327.0000;6438.4480
328.0000;6457.1800
329.0000;6469.5080
330.0000;6478.4440
331.0000;6482.8940
332.0000;6484.7510
333.0000;6493.4260
334.0000;6511.8290
335.0000;6532.9200
336.0000;6554.1610
337.0000;6570.8120
338.0000;6583.2460
339.0000;6596.2210
340.0000;6607.5010
341.0000;6615.8920
342.0000;6626.8530
343.0000;6638.2500
344.0000;6648.5190
345.0000;6661.2660
346.0000;6673.5970
347.0000;6683.8000
348.0000;6694.2820
349.0000;6702.0750
350.0000;6708.7210
351.0000;6719.5230
352.0000;6730.1220
353.0000;6738.5740
354.0000;6746.7530
355.0000;6751.0830
356.0000;6752.9060
357.0000;6754.6040
358.0000;6754.1380
359.0000;6754.2120
360.0000;6757.8930
361.0000;6761.2900
362.0000;6761.4280
363.0000;6754.8350
364.0000;6748.2440
365.0000;6750.0370
366.0000;6765.3090
367.0000;6783.6880
368.0000;6792.2880
369.0000;6786.3430
370.0000;6775.0160
371.0000;6770.1670
372.0000;6773.8150
373.0000;6781.9130
374.0000;6792.6590
375.0000;6804.4020
376.0000;6814.5490
377.0000;6818.0830
378.0000;6815.3050
379.0000;6815.6790
380.0000;6830.7350
381.0000;6854.7370
382.0000;6879.1720
383.0000;6898.1690
384.0000;6909.0630
385.0000;6918.7000
386.0000;6936.5390
387.0000;6951.9730
388.0000;6965.5040
389.0000;6975.4390
390.0000;6981.8730
391.0000;6991.9570
392.0000;7011.3220
393.0000;7030.6960
394.0000;7048.5530
395.0000;7060.9850
396.0000;7068.0900
397.0000;7075.1460
398.0000;7082.1490
399.0000;7087.1600
400.0000;7093.7520
401.0000;7101.1750
402.0000;7107.6410
403.0000;7114.2070
404.0000;7119.4220
405.0000;7125.3320
406.0000;7136.5120
407.0000;7149.6940
408.0000;7163.1040
409.0000;7176.0710
410.0000;7185.4440
411.0000;7193.9480
412.0000;7206.2180
413.0000;7216.6120
414.0000;7224.5440
415.0000;7229.4390
416.0000;7231.5180
417.0000;7237.1220
418.0000;7250.9620
419.0000;7265.4470
420.0000;7274.1420
421.0000;7272.2520
422.0000;7267.4390
423.0000;7271.9380
424.0000;7288.3140
425.0000;7307.9100
426.0000;7323.8640
427.0000;7332.4380
428.0000;7334.4550
429.0000;7334.4420
430.0000;7329.7110
431.0000;7322.0040
432.0000;7311.6470
433.0000;7301.8640
434.0000;7299.0230
435.0000;7309.2840
436.0000;7329.4230
437.0000;7347.3730
438.0000;7353.3170
439.0000;7350.6700
440.0000;7346.9820
441.0000;7347.1440
442.0000;7348.9050
443.0000;7353.6160
444.0000;7362.1300
445.0000;7372.9620
446.0000;7384.4800
447.0000;7394.7610
448.0000;7405.5670
449.0000;7423.4160
450.0000;7446.1710
451.0000;7465.2010
452.0000;7476.6090
453.0000;7476.4520
454.0000;7471.7480
455.0000;7471.8310
456.0000;7474.1370
457.0000;7478.5010
458.0000;7485.3770
459.0000;7494.2830
460.0000;7504.5660
461.0000;7517.1760
462.0000;7529.5090
463.0000;7542.5050
464.0000;7557.1990
465.0000;7569.0370
466.0000;7578.7210
467.0000;7584.5900
468.0000;7588.4320
469.0000;7597.7250
470.0000;7613.6710
471.0000;7628.8630
472.0000;7638.2300
473.0000;7639.4720
474.0000;7641.8480
475.0000;7659.5990
476.0000;7686.9260
477.0000;7710.5890
478.0000;7718.0640
479.0000;7712.6840
480.0000;7712.2000
481.0000;7739.5450
482.0000;7774.4380
483.0000;7799.1250
484.0000;7798.6450
485.0000;7784.6520
486.0000;7778.9860
487.0000;7792.0390
488.0000;7812.8410
489.0000;7835.0150
490.0000;7855.0400
491.0000;7870.9110
492.0000;7885.1410
493.0000;7893.3200
494.0000;7893.9730
495.0000;7889.0260
496.0000;7878.0720
497.0000;7870.2620
498.0000;7876.5410
499.0000;7892.6390
500.0000;7908.1000
501.0000;7914.0230
502.0000;7913.3750
503.0000;7912.3610
504.0000;7915.2640
505.0000;7918.9330
506.0000;7923.8920
507.0000;7930.4000
508.0000;7936.2780
509.0000;7939.6590
510.0000;7939.3950
511.0000;7938.8360
512.0000;7942.6420
513.0000;7950.5940
514.0000;7960.3330
515.0000;7971.8420
516.0000;7982.3720
517.0000;7989.4500
518.0000;7991.8590
519.0000;7988.6040
520.0000;7984.7920
521.0000;7983.6890
522.0000;7985.2070
523.0000;7991.2670
524.0000;8004.4830
525.0000;8018.5700
526.0000;8027.3140
527.0000;8026.3540
528.0000;8024.0680
529.0000;8034.0300
530.0000;8055.9480
531.0000;8075.6750
532.0000;8079.0770
533.0000;8066.7720
534.0000;8057.4770
535.0000;8073.1570
536.0000;8103.9170
537.0000;8133.5000
538.0000;8150.9130
539.0000;8155.7280
540.0000;8157.2720
541.0000;8160.5070
542.0000;8161.7950
543.0000;8165.9280
544.0000;8174.1760
545.0000;8184.6320
546.0000;8197.0910
547.0000;8209.3730
548.0000;8223.6100
549.0000;8246.4820
550.0000;8271.6680
551.0000;8292.1650
552.0000;8304.2690
553.0000;8305.1710
554.0000;8305.4000
555.0000;8318.7650
556.0000;8334.6050
557.0000;8346.9070
558.0000;8351.1050
559.0000;8351.8290
560.0000;8359.9160
561.0000;8379.6520
562.0000;8399.6280
563.0000;8410.9710
564.0000;8410.0420
565.0000;8401.7580
566.0000;8394.1490
567.0000;8386.8060
568.0000;8383.4320
569.0000;8386.7290
570.0000;8397.2610
571.0000;8410.1780
572.0000;8423.2140
573.0000;8434.3500
574.0000;8444.1780
575.0000;8453.5880
576.0000;8457.5450
577.0000;8457.0310
578.0000;8450.9920
579.0000;8442.5580
580.0000;8437.6410
581.0000;8437.4680
582.0000;8441.6530
583.0000;8448.6430
584.0000;8459.1130
585.0000;8470.7120
586.0000;8484.2100
587.0000;8495.1370
588.0000;8502.9060
589.0000;8506.2950
590.0000;8505.2640
591.0000;8506.6880
592.0000;8514.7890
593.0000;8520.5570
594.0000;8517.1310
595.0000;8502.5080
596.0000;8486.5510
597.0000;8479.5910
598.0000;8483.5990
599.0000;8494.3200
600.0000;8507.4680
601.0000;8522.5340
602.0000;8537.4940
603.0000;8552.3360
604.0000;8561.1380
605.0000;8564.7880
606.0000;8561.8160
607.0000;8554.8630
608.0000;8552.7010
609.0000;8558.0010
610.0000;8567.7580
611.0000;8578.3600
612.0000;8589.7370
613.0000;8603.2160
614.0000;8623.0820
615.0000;8644.5680
616.0000;8664.3680
617.0000;8682.7560
618.0000;8696.7710
619.0000;8715.0190
620.0000;8746.4260
621.0000;8774.8920
622.0000;8796.8400
623.0000;8805.6020
624.0000;8803.9170
625.0000;8802.4470
626.0000;8800.6670
627.0000;8802.7180
628.0000;8816.8790
629.0000;8840.2350
630.0000;8863.8730
631.0000;8884.9160
632.0000;8898.8720
633.0000;8910.0450
634.0000;8921.9690
635.0000;8928.1310
636.0000;8930.3010
637.0000;8927.5210
638.0000;8923.7190
639.0000;8927.6550
640.0000;8939.9010
641.0000;8953.9580
642.0000;8966.0340
643.0000;8974.3080
644.0000;8981.3920
645.0000;8991.2660
646.0000;9000.0620
647.0000;9009.3180
648.0000;9021.6310
649.0000;9030.3110
650.0000;9032.8570
651.0000;9026.6460
652.0000;9018.5980
653.0000;9019.5920
654.0000;9030.3690
655.0000;9042.9970
656.0000;9050.6320
657.0000;9053.9910
658.0000;9059.1000
659.0000;9072.7640
660.0000;9088.7560
661.0000;9103.9850
662.0000;9117.9030
663.0000;9126.7560
664.0000;9133.0200
665.0000;9135.3120
666.0000;9134.1880
667.0000;9135.2440
668.0000;9137.2540
669.0000;9138.5150
670.0000;9139.0330
671.0000;9137.9880
672.0000;9135.3060
673.0000;9128.4990
674.0000;9123.0120
675.0000;9125.2790
676.0000;9139.6950
677.0000;9157.8200
678.0000;9170.3980
679.0000;9173.5550
680.0000;9170.5990
681.0000;9165.8020
682.0000;9158.7060
683.0000;9153.6590
684.0000;9152.4620
685.0000;9158.1040
686.0000;9171.7260
687.0000;9194.3300
688.0000;9221.3630
689.0000;9248.5230
690.0000;9271.7000
691.0000;9286.5950
692.0000;9295.0370
693.0000;9293.5400
694.0000;9292.1800
695.0000;9306.0930
696.0000;9329.3320
697.0000;9353.8200
698.0000;9375.5880
699.0000;9391.4250
700.0000;9406.3540
701.0000;9422.3970
702.0000;9432.3850
703.0000;9438.4600
704.0000;9438.0890
705.0000;9435.8810
706.0000;9439.3360
707.0000;9447.6260
708.0000;9460.3580
709.0000;9480.3530
710.0000;9501.4670
711.0000;9518.2670
712.0000;9526.4610
713.0000;9527.5330
714.0000;9531.5350
715.0000;9539.8760
716.0000;9550.0290
717.0000;9565.0020
718.0000;9581.7000
719.0000;9594.7950
720.0000;9600.6920
721.0000;9599.2180
722.0000;9600.8220
723.0000;9616.4040
724.0000;9633.4630
725.0000;9641.7430
726.0000;9634.4300
727.0000;9624.1210
728.0000;9628.7870
729.0000;9648.6690
730.0000;9670.8940
731.0000;9686.9990
732.0000;9693.8930
733.0000;9693.3480
734.0000;9686.3070
735.0000;9674.9780
736.0000;9670.5320
737.0000;9680.0920
738.0000;9693.6380
739.0000;9700.9010
740.0000;9699.4030
741.0000;9695.2270
742.0000;9695.7310
743.0000;9698.5960
744.0000;9700.9000
745.0000;9696.8480
746.0000;9693.8190
747.0000;9700.6110
748.0000;9724.3150
749.0000;9750.6710
750.0000;9766.7510
751.0000;9766.9950
752.0000;9762.7860
753.0000;9770.0610
754.0000;9783.9350
755.0000;9798.4000
756.0000;9812.1950
757.0000;9820.0680
758.0000;9820.7630
759.0000;9812.0400
760.0000;9798.8870
761.0000;9791.5210
762.0000;9793.4040
763.0000;9797.9770
764.0000;9797.7410
765.0000;9794.7460
766.0000;9793.2000
767.0000;9795.2510
768.0000;9800.8180
769.0000;9809.3870
770.0000;9819.9910
771.0000;9831.2560
772.0000;9840.8120
773.0000;9847.0150
774.0000;9854.3140
775.0000;9872.1010
776.0000;9894.2680
777.0000;9908.5000
778.0000;9906.3740
779.0000;9893.3450
780.0000;9886.6330
781.0000;9896.4810
782.0000;9911.5290
783.0000;9923.0100
784.0000;9927.4170
785.0000;9928.8250
786.0000;9932.0180
787.0000;9934.7630
788.0000;9937.1610
789.0000;9938.5860
790.0000;9941.2240
791.0000;9949.7850
792.0000;9965.5400
793.0000;9985.1950
794.0000;10007.6100
795.0000;10029.3900
796.0000;10040.8700
797.0000;10034.7300
798.0000;10014.4100
799.0000;10004.2300
800.0000;10024.8500
801.0000;10058.3300
802.0000;10085.8000
803.0000;10095.4100
804.0000;10097.0700
805.0000;10103.7600
806.0000;10112.8600
807.0000;10123.9200
808.0000;10141.2300
809.0000;10159.0000
810.0000;10172.4600
811.0000;10179.3400
812.0000;10178.3800
813.0000;10175.7100
814.0000;10171.9200
815.0000;10167.9500
816.0000;10166.2200
817.0000;10168.0300
818.0000;10174.7400
819.0000;10189.0600
820.0000;10206.1100
821.0000;10217.2300
822.0000;10216.0500
823.0000;10209.9600
824.0000;10211.5000
825.0000;10221.9500
826.0000;10236.0400
827.0000;10251.6000
828.0000;10264.5300
829.0000;10272.2300
830.0000;10269.1100
831.0000;10262.3900
832.0000;10269.3000
833.0000;10298.6400
834.0000;10329.2400
835.0000;10341.0400
836.0000;10330.9100
837.0000;10316.8100
838.0000;10319.7100
839.0000;10331.2000
840.0000;10342.1800
841.0000;10348.2500
842.0000;10350.3600
843.0000;10350.3900
844.0000;10348.0300
845.0000;10346.8900
846.0000;10352.9300
847.0000;10364.6300
848.0000;10376.5200
849.0000;10385.2700
850.0000;10390.1400
851.0000;10393.4800
852.0000;10395.6600
853.0000;10395.9500
854.0000;10397.6800
855.0000;10400.1300
856.0000;10401.6300
857.0000;10400.0900
858.0000;10397.4000
859.0000;10398.1400
860.0000;10405.0700
861.0000;10416.0300
862.0000;10428.5100
863.0000;10440.2900
864.0000;10451.3700
865.0000;10463.6000
866.0000;10473.2200
867.0000;10480.0100
868.0000;10484.2200
869.0000;10486.3900
870.0000;10495.2100
871.0000;10514.5100
872.0000;10532.8900
873.0000;10540.2800
874.0000;10535.0300
875.0000;10532.0600
876.0000;10547.2900
877.0000;10572.7100
878.0000;10598.0200
879.0000;10617.0600
880.0000;10628.8700
881.0000;10640.1800
882.0000;10648.6300
883.0000;10650.8600
884.0000;10648.6900
885.0000;10641.6600
886.0000;10637.5800
887.0000;10643.5400
888.0000;10654.4800
889.0000;10663.7500
890.0000;10667.9900
891.0000;10672.6000
892.0000;10682.7900
893.0000;10697.2400
894.0000;10715.3000
895.0000;10741.0800
896.0000;10764.9400
897.0000;10782.0500
898.0000;10786.6800
899.0000;10786.9600
900.0000;10799.7300
901.0000;10823.6900
902.0000;10851.3900
903.0000;10883.7900
904.0000;10911.3600
905.0000;10928.7000
906.0000;10932.3200
907.0000;10926.3200
908.0000;10928.3800
909.0000;10939.9600
910.0000;10954.6400
911.0000;10969.5100
912.0000;10983.5700
913.0000;10999.0600
914.0000;11019.5400
915.0000;11037.7200
916.0000;11053.4600
917.0000;11063.4600
918.0000;11070.5000
919.0000;11082.9500
920.0000;11096.7300
921.0000;11111.4900
922.0000;11130.5500
923.0000;11146.9600
924.0000;11160.5000
925.0000;11169.6000
926.0000;11170.6300
927.0000;11165.4100
928.0000;11153.1000
929.0000;11143.2000
930.0000;11143.2600
931.0000;11150.9600
932.0000;11159.9300
933.0000;11165.9700
934.0000;11174.5400
935.0000;11191.5900
936.0000;11213.4800
937.0000;11233.7600
938.0000;11248.2800
939.0000;11256.2300
940.0000;11268.4100
941.0000;11290.7900
942.0000;11310.4500
943.0000;11320.6100
944.0000;11317.6600
945.0000;11308.7400
946.0000;11305.9200
947.0000;11303.5400
948.0000;11298.5900
949.0000;11289.3000
950.0000;11281.1700
951.0000;11276.7600
952.0000;11278.8700
953.0000;11288.7800
954.0000;11308.8900
955.0000;11333.1600
956.0000;11351.9200
957.0000;11355.2200
958.0000;11353.0300
959.0000;11363.6300
960.0000;11387.0800
961.0000;11412.4600
962.0000;11431.1800
963.0000;11442.2500
964.0000;11454.7400
965.0000;11473.5200
966.0000;11491.9200
967.0000;11514.2600
968.0000;11537.1500
969.0000;11544.6300
970.0000;11524.2900
971.0000;11485.4500
972.0000;11458.2500
973.0000;11464.2300
974.0000;11491.1300
975.0000;11521.5300
976.0000;11548.9900
977.0000;11574.4500
978.0000;11596.8200
979.0000;11611.0300
980.0000;11624.7400
981.0000;11644.0600
982.0000;11659.5800
983.0000;11671.7700
984.0000;11677.7900
985.0000;11678.5900
986.0000;11680.4000
987.0000;11680.4600
988.0000;11681.3500
989.0000;11682.9500
990.0000;11689.8500
991.0000;11710.4500
992.0000;11742.4300
993.0000;11769.4000
994.0000;11774.0400
995.0000;11760.6100
996.0000;11753.9400
997.0000;11769.2100
998.0000;11792.8500
999.0000;11811.7100
1000.0000;11823.1700
1001.0000;11836.6400
1002.0000;11866.2200
1003.0000;11899.7400
1004.0000;11926.0100
1005.0000;11937.5500
1006.0000;11937.4700
1007.0000;11939.3900
1008.0000;11942.3900
1009.0000;11949.1300
1010.0000;11966.1700
1011.0000;11987.5800
1012.0000;12010.8400
1013.0000;12033.4200
1014.0000;12046.6300
1015.0000;12047.9500
1016.0000;12034.8100
1017.0000;12024.5500
1018.0000;12035.6200
1019.0000;12058.8200
1020.0000;12081.8600
1021.0000;12098.4500
1022.0000;12106.6200
1023.0000;12106.7900
1024.0000;12097.5600
1025.0000;12092.0000
1026.0000;12102.9900
1027.0000;12122.9200
1028.0000;12142.6800
1029.0000;12157.4500
1030.0000;12166.0200
1031.0000;12168.3000
1032.0000;12164.0900
1033.0000;12166.0400
1034.0000;12187.5400
1035.0000;12214.7400
1036.0000;12233.9600
1037.0000;12239.4100
1038.0000;12238.8800
1039.0000;12246.8200
1040.0000;12256.5900
1041.0000;12262.7300
1042.0000;12260.1800
1043.0000;12257.1000
1044.0000;12266.8100
1045.0000;12291.0200
1046.0000;12315.1500
1047.0000;12326.7900
1048.0000;12327.4900
1049.0000;12331.9200
1050.0000;12349.2500
1051.0000;12364.7200
1052.0000;12369.0400
1053.0000;12359.9400
1054.0000;12349.0700
1055.0000;12349.2500
1056.0000;12355.3700
1057.0000;12361.1000
1058.0000;12363.2700
1059.0000;12365.8800
1060.0000;12372.0500
1061.0000;12381.0500
1062.0000;12392.1400
1063.0000;12406.0500
1064.0000;12419.0500
1065.0000;12430.5200
1066.0000;12438.0800
1067.0000;12445.4500
1068.0000;12463.0300
1069.0000;12482.9700
1070.0000;12496.0700
1071.0000;12495.9600
1072.0000;12487.7500
1073.0000;12484.2100
1074.0000;12487.4300
1075.0000;12496.5700
1076.0000;12514.4000
1077.0000;12535.2700
1078.0000;12550.2800
1079.0000;12552.7400
1080.0000;12549.8500
1081.0000;12553.9000
1082.0000;12565.1000
1083.0000;12582.4300
1084.0000;12609.5600
1085.0000;12637.6700
1086.0000;12660.8500
1087.0000;12673.1400
1088.0000;12679.4300
1089.0000;12694.6000
1090.0000;12710.3300
1091.0000;12720.4600
1092.0000;12718.3800
1093.0000;12714.5800
1094.0000;12728.3400
1095.0000;12760.9600
1096.0000;12795.1500
1097.0000;12821.8000
1098.0000;12833.6800
1099.0000;12837.9100
1100.0000;12835.3000
1101.0000;12827.0900
1102.0000;12822.8700
1103.0000;12823.9800
1104.0000;12832.2600
1105.0000;12852.4600
1106.0000;12874.9700
1107.0000;12886.7600
1108.0000;12880.8400
1109.0000;12873.3900
1110.0000;12883.6600
1111.0000;12905.7300
1112.0000;12927.1100
1113.0000;12941.2300
1114.0000;12950.6100
1115.0000;12964.3700
1116.0000;12978.2800
1117.0000;12987.6300
1118.0000;12989.8000
1119.0000;12987.4700
1120.0000;12995.5100
1121.0000;13019.1200
1122.0000;13041.5700
1123.0000;13047.7600
1124.0000;13037.8800
1125.0000;13026.2000
1126.0000;13023.5400
1127.0000;13024.9700
1128.0000;13026.9000
1129.0000;13030.0100
1130.0000;13039.6500
1131.0000;13063.9800
1132.0000;13091.3100
1133.0000;13108.9700
1134.0000;13108.4700
1135.0000;13097.5400
1136.0000;13090.8500
1137.0000;13087.0800
1138.0000;13084.3500
1139.0000;13080.0600
1140.0000;13080.7100
1141.0000;13092.1100
1142.0000;13113.7700
1143.0000;13132.8800
1144.0000;13136.9100
1145.0000;13128.5400
1146.0000;13120.6400
1147.0000;13119.5600
1148.0000;13120.5800
1149.0000;13121.9600
1150.0000;13123.7000
1151.0000;13123.8600
1152.0000;13118.2800
1153.0000;13114.7800
1154.0000;13123.0200
1155.0000;13143.7400
1156.0000;13164.1700
1157.0000;13171.9200
1158.0000;13169.0700
1159.0000;13166.3700
1160.0000;13167.4300
1161.0000;13172.0600
1162.0000;13186.6300
1163.0000;13205.7000
1164.0000;13217.0600
1165.0000;13208.0900
1166.0000;13193.2800
1167.0000;13195.2400
1168.0000;13217.3200
1169.0000;13250.0400
1170.0000;13284.4400
1171.0000;13318.0800
1172.0000;13352.2800
1173.0000;13382.9200
1174.0000;13401.0900
1175.0000;13406.7300
1176.0000;13397.3300
1177.0000;13394.2500
1178.0000;13413.5900
1179.0000;13439.5600
1180.0000;13456.6900
1181.0000;13461.6700
1182.0000;13468.9000
1183.0000;13499.8200
1184.0000;13530.0000
1185.0000;13541.3700
1186.0000;13522.8000
1187.0000;13500.0900
1188.0000;13501.3800
1189.0000;13521.0400
1190.0000;13542.5500
1191.0000;13557.8400
1192.0000;13571.0500
1193.0000;13588.3000
1194.0000;13605.9800
1195.0000;13621.6100
1196.0000;13636.8700
1197.0000;13646.4700
1198.0000;13657.6400
1199.0000;13668.0900
1200.0000;13671.0600
1201.0000;13662.6000
1202.0000;13647.6800
1203.0000;13642.6600
1204.0000;13655.1000
1205.0000;13677.2900
1206.0000;13700.8400
1207.0000;13723.7900
1208.0000;13743.5400
1209.0000;13757.6800
1210.0000;13766.0300
1211.0000;13779.3000
1212.0000;13795.2100
1213.0000;13811.1600
1214.0000;13831.2200
1215.0000;13846.6800
1216.0000;13857.3200
1217.0000;13860.0400
1218.0000;13860.9100
1219.0000;13871.6300
1220.0000;13885.4600
1221.0000;13896.9600
1222.0000;13902.1800
1223.0000;13906.4000
1224.0000;13920.2000
1225.0000;13938.1900
1226.0000;13952.4100
1227.0000;13959.9000
1228.0000;13959.1800
1229.0000;13953.8800
1230.0000;13945.3100
1231.0000;13945.8000
1232.0000;13969.1200
1233.0000;14001.8600
1234.0000;14026.5900
1235.0000;14034.9400
1236.0000;14032.5900
1237.0000;14028.3000
1238.0000;14020.2500
1239.0000;14018.4800
1240.0000;14028.1200
1241.0000;14040.1000
1242.0000;14045.5200
1243.0000;14044.5700
1244.0000;14042.8800
1245.0000;14043.4600
1246.0000;14044.9200
1247.0000;14048.6300
1248.0000;14053.7300
1249.0000;14056.8900
1250.0000;14051.9100
1251.0000;14049.2000
1252.0000;14065.6400
1253.0000;14101.7600
1254.0000;14129.2300
1255.0000;14121.9200
1256.0000;14093.3000
1257.0000;14077.2000
1258.0000;14085.2700
1259.0000;14099.1100
1260.0000;14101.0200
1261.0000;14096.9700
1262.0000;14096.8900
1263.0000;14105.8500
1264.0000;14115.2900
1265.0000;14115.3200
1266.0000;14108.6600
1267.0000;14107.4600
1268.0000;14119.6700
1269.0000;14137.4100
1270.0000;14153.5900
1271.0000;14164.9700
1272.0000;14171.4900
1273.0000;14172.7400
1274.0000;14172.4500
1275.0000;14183.7900
1276.0000;14208.1600
1277.0000;14231.8900
1278.0000;14245.1300
1279.0000;14251.9900
1280.0000;14267.9300
1281.0000;14294.1400
1282.0000;14327.7400
1283.0000;14375.9100
1284.0000;14424.0900
1285.0000;14461.2200
1286.0000;14480.1000
1287.0000;14481.5100
1288.0000;14482.1200
1289.0000;14477.0500
1290.0000;14476.2500
1291.0000;14485.7900
1292.0000;14503.1900
1293.0000;14528.9600
1294.0000;14557.3600
1295.0000;14577.4400
1296.0000;14578.3400
1297.0000;14571.3400
1298.0000;14583.0200
1299.0000;14610.5300
1300.0000;14633.1700
1301.0000;14637.8100
1302.0000;14628.7200
1303.0000;14619.6500
1304.0000;14613.7100
1305.0000;14615.3000
1306.0000;14630.7300
1307.0000;14654.4100
1308.0000;14677.8500
1309.0000;14695.9900
1310.0000;14704.4800
1311.0000;14703.7700
1312.0000;14693.9700
1313.0000;14688.1200
1314.0000;14691.1800
1315.0000;14706.8300
1316.0000;14743.4500
1317.0000;14789.4500
1318.0000;14828.8600
1319.0000;14847.7900
1320.0000;14851.3200
1321.0000;14855.2300
1322.0000;14854.7700
1323.0000;14859.4100
1324.0000;14876.4700
1325.0000;14895.3300
1326.0000;14911.8900
1327.0000;14920.8300
1328.0000;14924.0000
1329.0000;14922.7700
1330.0000;14916.0200
1331.0000;14907.9500
1332.0000;14901.0000
1333.0000;14903.6000
1334.0000;14924.6400
1335.0000;14950.3600
1336.0000;14960.4100
1337.0000;14952.1900
1338.0000;14946.1400
1339.0000;14961.3900
1340.0000;14982.9100
1341.0000;14997.6800
1342.0000;15000.9200
1343.0000;15005.2000
1344.0000;15026.4100
1345.0000;15049.2700
1346.0000;15065.1800
1347.0000;15067.8000
1348.0000;15065.3600
1349.0000;15069.9300
1350.0000;15074.7600
1351.0000;15079.7200
1352.0000;15084.1100
1353.0000;15082.8300
1354.0000;15070.6900
1355.0000;15053.9600
1356.0000;15046.0800
1357.0000;15052.7700
1358.0000;15067.6300
1359.0000;15082.8100
1360.0000;15096.9700
1361.0000;15107.6300
1362.0000;15112.5000
1363.0000;15112.8000
1364.0000;15111.7500
1365.0000;15111.6100
1366.0000;15122.6900
1367.0000;15149.3300
1368.0000;15179.4900
1369.0000;15209.9600
1370.0000;15229.7800
1371.0000;15235.4800
1372.0000;15222.9600
1373.0000;15203.1000
1374.0000;15195.1200
1375.0000;15197.2400
1376.0000;15198.9400
1377.0000;15194.8600
1378.0000;15193.6300
1379.0000;15200.9100
1380.0000;15215.1200
1381.0000;15227.8300
1382.0000;15231.6400
1383.0000;15239.8100
1384.0000;15269.9700
1385.0000;15314.2700
1386.0000;15351.9700
1387.0000;15369.3300
1388.0000;15374.7700
1389.0000;15392.1600
1390.0000;15412.8700
1391.0000;15431.3600
1392.0000;15445.6800
1393.0000;15452.6300
1394.0000;15460.8500
1395.0000;15464.2600
1396.0000;15459.1400
1397.0000;15442.7800
1398.0000;15425.7100
1399.0000;15421.0500
1400.0000;15430.9000
1401.0000;15445.4300
1402.0000;15455.8300
1403.0000;15472.1900
1404.0000;15506.2700
1405.0000;15549.4000
1406.0000;15583.7300
1407.0000;15594.1000
1408.0000;15599.3100
1409.0000;15637.3100
1410.0000;15696.0300
1411.0000;15749.6800
1412.0000;15784.7000
1413.0000;15796.7400
1414.0000;15802.1300
1415.0000;15793.8000
1416.0000;15783.8400
1417.0000;15782.2300
1418.0000;15784.7900
1419.0000;15791.6900
1420.0000;15801.8100
1421.0000;15808.7300
1422.0000;15808.4000
1423.0000;15805.1800
1424.0000;15805.8200
1425.0000;15809.7700
1426.0000;15814.8300
1427.0000;15817.3800
1428.0000;15827.8600
1429.0000;15861.6800
1430.0000;15907.4900
1431.0000;15943.5300
1432.0000;15955.6600
1433.0000;15951.4600
1434.0000;15955.4400
1435.0000;15958.1600
1436.0000;15950.6200
1437.0000;15929.0600
1438.0000;15906.8500
1439.0000;15897.8600
1440.0000;15903.2300
1441.0000;15910.9200
1442.0000;15914.8200
1443.0000;15917.4400
1444.0000;15913.0300
1445.0000;15908.6700
1446.0000;15923.0300
1447.0000;15964.5400
1448.0000;16006.6300
1449.0000;16025.6000
1450.0000;16020.6200
1451.0000;16017.2500
1452.0000;16024.0700
1453.0000;16030.6900
1454.0000;16032.2900
1455.0000;16031.9500
1456.0000;16039.3800
1457.0000;16056.9900
1458.0000;16072.9200
1459.0000;16077.4000
1460.0000;16072.8200
1461.0000;16071.8000
1462.0000;16077.7200
1463.0000;16088.9800
1464.0000;16105.8100
1465.0000;16126.7300
1466.0000;16152.1700
1467.0000;16178.4600
1468.0000;16194.4000
1469.0000;16196.6700
1470.0000;16183.1400
1471.0000;16167.0400
1472.0000;16153.1100
1473.0000;16147.1600
1474.0000;16153.7200
1475.0000;16172.6600
1476.0000;16194.4600
1477.0000;16216.1100
1478.0000;16236.7700
1479.0000;16256.4200
1480.0000;16268.2800
1481.0000;16275.0600
1482.0000;16274.4700
1483.0000;16275.7300
1484.0000;16289.2500
1485.0000;16301.2100
1486.0000;16300.7500
1487.0000;16288.7300
1488.0000;16280.7500
1489.0000;16287.0800
1490.0000;16299.1200
1491.0000;16306.1800
1492.0000;16309.9400
1493.0000;16316.7900
1494.0000;16329.3400
1495.0000;16344.0500
1496.0000;16359.4300
1497.0000;16374.9800
1498.0000;16402.2800
1499.0000;16443.6400
1500.0000;16475.9600
1501.0000;16486.8500
1502.0000;16476.8900
1503.0000;16475.5000
1504.0000;16490.9800
1505.0000;16504.6700
1506.0000;16504.6300
1507.0000;16497.6200
1508.0000;16498.2800
1509.0000;16510.0600
1510.0000;16527.5900
1511.0000;16548.3500
1512.0000;16570.3600
1513.0000;16597.1000
1514.0000;16623.4400
1515.0000;16639.1300
1516.0000;16637.2100
1517.0000;16628.8000
1518.0000;16640.7700
1519.0000;16670.5000
1520.0000;16706.2800
1521.0000;16740.8200
1522.0000;16765.5600
1523.0000;16780.0200
1524.0000;16779.7700
1525.0000;16782.1200
1526.0000;16796.2000
1527.0000;16809.2500
1528.0000;16818.3300
1529.0000;16819.7600
1530.0000;16814.7700
1531.0000;16803.3900
1532.0000;16801.8000
1533.0000;16831.4600
1534.0000;16875.0500
1535.0000;16901.2800
1536.0000;16899.4600
1537.0000;16896.4700
1538.0000;16920.2400
1539.0000;16952.1700
1540.0000;16983.0600
1541.0000;17005.1100
1542.0000;17017.3000
1543.0000;17021.6000
1544.0000;17016.8000
1545.0000;17018.5400
1546.0000;17024.1000
1547.0000;17027.3100
1548.0000;17025.3000
1549.0000;17021.8100
1550.0000;17022.3000
1551.0000;17025.1000
1552.0000;17025.5300
1553.0000;17020.9000
1554.0000;17022.6700
1555.0000;17041.3200
1556.0000;17070.3200
1557.0000;17098.7700
1558.0000;17119.5700
1559.0000;17131.6400
1560.0000;17136.9900
1561.0000;17136.0600
1562.0000;17149.0000
1563.0000;17172.8200
1564.0000;17186.9200
1565.0000;17178.3300
1566.0000;17158.0600
1567.0000;17141.0200
1568.0000;17133.9600
1569.0000;17147.5000
1570.0000;17188.5600
1571.0000;17236.6500
1572.0000;17269.9800
1573.0000;17283.9700
1574.0000;17295.8400
1575.0000;17307.5900
1576.0000;17311.7400
1577.0000;17315.1400
1578.0000;17310.1600
1579.0000;17297.6300
1580.0000;17279.1200
1581.0000;17260.2800
1582.0000;17245.3500
1583.0000;17236.6100
1584.0000;17226.9800
1585.0000;17221.3700
1586.0000;17222.6100
1587.0000;17230.8400
1588.0000;17245.7200
1589.0000;17260.5100
1590.0000;17275.3900
1591.0000;17295.0300
1592.0000;17318.7900
1593.0000;17339.2300
1594.0000;17352.1100
1595.0000;17360.2200
1596.0000;17386.8100
1597.0000;17430.6600
1598.0000;17467.6100
1599.0000;17486.3400
1600.0000;17482.9500
1601.0000;17476.0800
1602.0000;17462.7100
1603.0000;17445.3200
1604.0000;17429.0300
1605.0000;17416.0800
1606.0000;17401.1800
1607.0000;17395.7300
1608.0000;17409.6700
1609.0000;17446.2900
1610.0000;17487.7700
1611.0000;17514.3600
1612.0000;17526.5900
1613.0000;17539.9200
1614.0000;17552.1700
1615.0000;17563.1900
1616.0000;17577.9200
1617.0000;17591.5700
1618.0000;17608.4600
1619.0000;17623.3500
1620.0000;17633.9700
1621.0000;17637.6400
1622.0000;17637.3700
1623.0000;17644.8800
1624.0000;17651.8700
1625.0000;17649.6900
1626.0000;17636.0200
1627.0000;17623.7100
1628.0000;17622.7300
1629.0000;17631.2900
1630.0000;17640.5100
1631.0000;17651.5600
1632.0000;17675.5700
1633.0000;17717.8200
1634.0000;17757.4900
1635.0000;17778.9800
1636.0000;17777.9000
1637.0000;17779.8200
1638.0000;17791.9500
1639.0000;17803.8500
1640.0000;17812.2900
1641.0000;17817.7900
1642.0000;17826.2900
1643.0000;17837.9900
1644.0000;17856.0700
1645.0000;17888.1100
1646.0000;17913.9300
1647.0000;17919.1200
1648.0000;17904.1400
1649.0000;17898.2500
1650.0000;17915.6400
1651.0000;17932.6800
1652.0000;17927.7600
1653.0000;17915.5700
1654.0000;17926.0900
1655.0000;17960.5600
1656.0000;17983.8000
1657.0000;17968.4800
1658.0000;17935.7200
1659.0000;17917.3800
1660.0000;17911.7800
1661.0000;17897.3400
1662.0000;17865.7000
1663.0000;17837.6500
1664.0000;17819.1100
1665.0000;17818.5900
1666.0000;17828.9100
1667.0000;17849.6300
1668.0000;17864.4600
1669.0000;17857.6600
1670.0000;17841.8800
1671.0000;17836.7200
1672.0000;17841.7900
1673.0000;17848.0500
1674.0000;17852.0000
1675.0000;17857.9300
1676.0000;17869.2100
1677.0000;17881.9900
1678.0000;17894.5100
1679.0000;17902.8500
1680.0000;17901.3700
1681.0000;17884.1400
1682.0000;17866.7500
1683.0000;17875.9400
1684.0000;17902.7400
1685.0000;17912.8700
1686.0000;17888.5800
1687.0000;17860.0100
1688.0000;17857.1900
1689.0000;17867.6500
1690.0000;17871.0900
1691.0000;17863.6800
1692.0000;17846.5400
1693.0000;17815.7500
1694.0000;17791.6800
1695.0000;17793.4800
1696.0000;17818.9600
1697.0000;17841.9700
1698.0000;17850.1000
1699.0000;17859.5000
1700.0000;17883.6300
1701.0000;17912.8300
1702.0000;17949.8900
1703.0000;17983.5000
1704.0000;17996.2900
1705.0000;17977.7900
1706.0000;17947.1300
1707.0000;17939.2400
1708.0000;17947.8000
1709.0000;17955.1100
1710.0000;17956.8700
1711.0000;17954.9200
1712.0000;17946.2000
1713.0000;17939.1600
1714.0000;17946.3800
1715.0000;17965.1300
1716.0000;17977.4600
1717.0000;17973.4600
1718.0000;17967.0300
1719.0000;17973.2100
1720.0000;17985.8700
1721.0000;17998.9000
1722.0000;18009.1300
1723.0000;18015.6500
1724.0000;18017.2100
1725.0000;18016.8200
1726.0000;18020.0500
1727.0000;18029.8100
1728.0000;18053.9800
1729.0000;18092.6800
1730.0000;18128.5400
1731.0000;18154.6500
1732.0000;18160.3900
1733.0000;18151.6300
1734.0000;18128.0800
1735.0000;18111.2900
1736.0000;18115.2400
1737.0000;18124.9800
1738.0000;18121.8000
1739.0000;18115.0700
1740.0000;18111.8200
1741.0000;18115.8200
1742.0000;18135.2300
1743.0000;18178.8400
1744.0000;18220.3800
1745.0000;18236.4700
1746.0000;18228.2500
1747.0000;18228.2900
1748.0000;18245.0700
1749.0000;18264.7400
1750.0000;18283.6100
1751.0000;18297.2700
1752.0000;18312.3200
1753.0000;18318.2600
1754.0000;18302.7100
1755.0000;18259.5500
1756.0000;18225.2200
1757.0000;18240.9400
1758.0000;18281.9000
1759.0000;18296.9200
1760.0000;18280.9100
1761.0000;18268.7800
1762.0000;18278.7700
1763.0000;18292.7900
1764.0000;18292.2700
1765.0000;18286.5900
1766.0000;18295.8400
1767.0000;18320.8400
1768.0000;18338.8600
1769.0000;18335.4300
1770.0000;18318.3600
1771.0000;18298.1700
1772.0000;18282.5800
1773.0000;18286.4600
1774.0000;18316.1900
1775.0000;18338.0100
1776.0000;18322.4100
1777.0000;18292.1800
1778.0000;18281.5500
1779.0000;18290.7900
1780.0000;18304.2900
1781.0000;18316.8800
1782.0000;18325.9000
1783.0000;18329.2700
1784.0000;18325.4900
1785.0000;18324.9000
1786.0000;18322.6100
1787.0000;18300.4100
1788.0000;18247.8600
1789.0000;18203.5200
1790.0000;18194.7400
1791.0000;18217.7300
1792.0000;18235.9900
1793.0000;18247.1400
1794.0000;18267.5500
1795.0000;18305.6600
1796.0000;18335.4200
1797.0000;18344.8300
1798.0000;18329.0900
1799.0000;18304.0400
1800.0000;18275.8900
1801.0000;18255.7300
1802.0000;18256.7600
1803.0000;18264.5100
1804.0000;18250.2400
1805.0000;18230.4600
1806.0000;18229.3000
1807.0000;18253.9300
1808.0000;18283.3200
1809.0000;18309.2000
1810.0000;18314.3300
1811.0000;18282.3300
1812.0000;18225.7100
1813.0000;18195.0300
1814.0000;18207.3000
1815.0000;18224.7800
1816.0000;18214.1900
1817.0000;18198.6900
1818.0000;18192.2600
1819.0000;18196.0100
1820.0000;18203.4200
1821.0000;18212.9800
1822.0000;18221.8700
1823.0000;18230.4500
1824.0000;18228.8700
1825.0000;18208.5700
1826.0000;18175.7100
1827.0000;18150.1800
1828.0000;18142.8200
1829.0000;18155.7100
1830.0000;18186.8800
1831.0000;18228.9700
1832.0000;18264.3800
1833.0000;18286.8200
1834.0000;18305.8900
1835.0000;18320.5700
1836.0000;18319.5800
1837.0000;18298.6100
1838.0000;18274.9200
1839.0000;18278.7200
1840.0000;18307.2900
1841.0000;18330.3900
1842.0000;18335.6000
1843.0000;18337.9500
1844.0000;18348.4300
1845.0000;18362.6100
1846.0000;18386.6700
1847.0000;18412.2100
1848.0000;18424.3800
1849.0000;18415.4100
1850.0000;18399.1500
1851.0000;18385.9300
1852.0000;18386.0600
1853.0000;18415.2800
1854.0000;18465.5600
1855.0000;18507.3900
1856.0000;18525.0200
1857.0000;18527.9700
1858.0000;18532.2000
1859.0000;18522.5300
1860.0000;18497.6900
1861.0000;18466.1000
1862.0000;18450.2600
1863.0000;18460.1800
1864.0000;18475.6000
1865.0000;18478.0800
1866.0000;18476.6000
1867.0000;18478.1300
1868.0000;18479.3000
1869.0000;18473.4900
1870.0000;18460.7900
1871.0000;18460.4100
1872.0000;18486.9000
1873.0000;18521.2900
1874.0000;18541.7000
1875.0000;18546.2800
1876.0000;18546.9600
1877.0000;18545.7600
1878.0000;18557.1300
1879.0000;18593.5300
1880.0000;18634.3800
1881.0000;18661.6700
1882.0000;18673.9600
1883.0000;18692.2100
1884.0000;18714.1000
1885.0000;18740.2600
1886.0000;18773.0700
1887.0000;18799.4600
1888.0000;18817.8200
1889.0000;18823.9100
1890.0000;18835.7700
1891.0000;18850.6700
1892.0000;18863.4000
1893.0000;18871.1200
1894.0000;18880.9400
1895.0000;18907.0300
1896.0000;18935.5900
1897.0000;18955.3100
1898.0000;18963.2100
1899.0000;18984.8300
1900.0000;19028.6900
1901.0000;19057.6500
1902.0000;19047.1400
1903.0000;19010.2900
1904.0000;18979.2700
1905.0000;18961.2000
1906.0000;18955.3600
1907.0000;18965.9900
1908.0000;18985.2400
1909.0000;19001.0400
1910.0000;19019.7300
1911.0000;19045.3500
1912.0000;19072.5400
1913.0000;19105.5300
1914.0000;19136.4100
1915.0000;19156.6900
1916.0000;19163.4300
1917.0000;19155.9900
1918.0000;19147.0200
1919.0000;19138.5800
1920.0000;19142.2900
1921.0000;19159.4900
1922.0000;19179.5600
1923.0000;19196.2300
1924.0000;19207.6900
1925.0000;19215.5100
1926.0000;19218.9300
1927.0000;19228.3000
1928.0000;19242.9500
1929.0000;19268.2800
1930.0000;19302.2900
1931.0000;19330.8100
1932.0000;19344.1500
1933.0000;19343.9100
1934.0000;19347.3000
1935.0000;19351.1500
1936.0000;19360.7600
1937.0000;19376.5100
1938.0000;19392.1500
1939.0000;19405.8200
1940.0000;19412.7000
1941.0000;19410.0200
1942.0000;19405.9700
1943.0000;19425.5500
1944.0000;19466.4500
1945.0000;19497.4800
1946.0000;19502.7500
1947.0000;19500.7100
1948.0000;19517.7500
1949.0000;19535.5700
1950.0000;19540.1400
1951.0000;19535.9800
1952.0000;19549.3300
1953.0000;19586.8000
1954.0000;19631.1700
1955.0000;19676.5900
1956.0000;19708.1600
1957.0000;19724.5500
1958.0000;19722.6500
1959.0000;19731.5500
1960.0000;19750.9400
1961.0000;19770.9000
1962.0000;19785.7300
1963.0000;19799.1000
1964.0000;19821.1300
1965.0000;19841.2900
1966.0000;19855.0000
1967.0000;19862.5400
1968.0000;19884.5300
1969.0000;19925.6600
1970.0000;19968.7800
1971.0000;20003.8900
1972.0000;20030.2600
1973.0000;20067.1600
1974.0000;20097.0400
1975.0000;20117.6600
1976.0000;20121.3700
1977.0000;20116.6200
1978.0000;20108.9200
1979.0000;20103.3000
1980.0000;20112.9800
1981.0000;20125.5700
1982.0000;20122.0900
1983.0000;20107.0800
1984.0000;20102.2800
1985.0000;20114.1100
1986.0000;20128.3900
1987.0000;20133.6300
1988.0000;20142.2100
1989.0000;20171.2800
1990.0000;20204.3000
1991.0000;20219.8800
1992.0000;20214.1100
1993.0000;20214.4200
1994.0000;20231.7500
1995.0000;20264.0600
1996.0000;20317.6500
1997.0000;20367.5900
1998.0000;20390.9400
1999.0000;20389.8400
2000.0000;20414.0000
2001.0000;20464.5300
2002.0000;20503.0000
2003.0000;20508.6100
2004.0000;20501.2500
2005.0000;20516.4500
2006.0000;20531.6300
2007.0000;20534.9100
2008.0000;20523.8500
2009.0000;20506.4900
2010.0000;20487.1400
2011.0000;20479.2500
2012.0000;20491.4200
2013.0000;20513.5500
2014.0000;20529.9700
2015.0000;20539.8100
2016.0000;20545.0100
2017.0000;20544.3800
2018.0000;20548.8200
2019.0000;20562.8100
2020.0000;20574.4100
2021.0000;20574.9600
2022.0000;20575.2000
2023.0000;20595.1800
2024.0000;20620.7300
2025.0000;20629.9600
2026.0000;20616.6300
2027.0000;20597.6100
2028.0000;20581.4800
2029.0000;20571.2400
2030.0000;20566.2700
2031.0000;20577.9500
2032.0000;20612.2200
2033.0000;20659.0800
2034.0000;20689.5000
2035.0000;20694.3500
2036.0000;20699.9100
2037.0000;20721.5700
2038.0000;20733.9900
2039.0000;20729.5100
2040.0000;20707.3200
2041.0000;20679.5800
2042.0000;20650.5400
2043.0000;20624.8500
2044.0000;20610.3600
2045.0000;20598.5700
2046.0000;20583.4400
2047.0000;20576.5000
2048.0000;20580.8300
2049.0000;20587.7200
2050.0000;20574.0800
2051.0000;20545.8500
2052.0000;20522.9800
2053.0000;20513.3200
2054.0000;20513.2800
2055.0000;20520.4100
2056.0000;20533.3000
2057.0000;20540.9600
2058.0000;20549.3100
2059.0000;20561.8400
2060.0000;20581.5600
2061.0000;20628.3600
2062.0000;20695.0200
2063.0000;20740.9000
2064.0000;20736.6700
2065.0000;20715.8000
2066.0000;20732.6600
2067.0000;20755.7900
2068.0000;20762.2400
2069.0000;20750.7100
2070.0000;20732.8300
2071.0000;20713.2400
2072.0000;20704.9900
2073.0000;20715.7400
2074.0000;20740.7900
2075.0000;20774.3300
2076.0000;20801.5200
2077.0000;20801.8000
2078.0000;20779.9900
2079.0000;20774.8500
2080.0000;20793.3600
2081.0000;20819.4900
2082.0000;20844.1200
2083.0000;20860.7800
2084.0000;20863.9600
2085.0000;20856.6700
2086.0000;20858.2600
2087.0000;20862.7400
2088.0000;20858.0800
2089.0000;20846.7400
2090.0000;20854.4200
2091.0000;20891.1600
2092.0000;20928.3200
2093.0000;20942.2600
2094.0000;20937.0600
2095.0000;20928.0200
2096.0000;20915.7800
2097.0000;20915.5300
2098.0000;20928.9100
2099.0000;20945.2800
2100.0000;20958.6900
2101.0000;20975.1800
2102.0000;20998.6000
2103.0000;21019.2700
2104.0000;21040.2100
2105.0000;21049.5900
2106.0000;21047.9100
2107.0000;21033.9300
2108.0000;21021.3400
2109.0000;21015.5800
2110.0000;21017.7000
2111.0000;21029.2600
2112.0000;21041.5000
2113.0000;21041.2600
2114.0000;21037.7800
2115.0000;21045.2600
2116.0000;21061.6700
2117.0000;21083.4700
2118.0000;21104.2900
2119.0000;21109.4300
2120.0000;21090.4500
2121.0000;21072.4300
2122.0000;21080.7100
2123.0000;21099.4400
2124.0000;21109.3000
2125.0000;21112.8800
2126.0000;21116.7400
2127.0000;21120.7800
2128.0000;21131.9800
2129.0000;21151.1900
2130.0000;21161.0000
2131.0000;21150.7300
2132.0000;21131.0900
2133.0000;21119.3400
2134.0000;21110.8600
2135.0000;21092.5700
2136.0000;21078.0800
2137.0000;21091.1000
2138.0000;21133.0500
2139.0000;21163.3100
2140.0000;21158.2800
2141.0000;21152.6800
2142.0000;21183.1800
2143.0000;21210.7600
2144.0000;21200.5600
2145.0000;21165.6300
2146.0000;21147.3400
2147.0000;21148.7200
2148.0000;21146.4800
2149.0000;21135.5200
2150.0000;21116.6600
2151.0000;21088.3100
2152.0000;21063.9000
2153.0000;21050.5800
2154.0000;21049.0600
2155.0000;21039.1500
2156.0000;21032.1900
2157.0000;21038.6600
2158.0000;21060.7300
2159.0000;21090.0900
2160.0000;21118.2700
2161.0000;21143.9400
2162.0000;21168.4700
2163.0000;21178.0700
2164.0000;21177.0600
2165.0000;21158.0200
2166.0000;21130.7900
2167.0000;21097.5000
2168.0000;21063.3900
2169.0000;21034.5500
2170.0000;21000.2300
2171.0000;20960.2600
2172.0000;20931.2300
2173.0000;20915.5900
2174.0000;20919.3700
2175.0000;20926.7900
2176.0000;20939.6500
2177.0000;20943.3500
2178.0000;20939.1900
2179.0000;20937.4700
2180.0000;20941.9600
2181.0000;20961.2400
2182.0000;20998.3600
2183.0000;21023.5700
2184.0000;21010.3700
2185.0000;20986.3500
2186.0000;20995.0300
2187.0000;21020.9700
2188.0000;21039.0700
2189.0000;21046.5500
2190.0000;21053.7400
2191.0000;21060.4300
2192.0000;21064.1400
2193.0000;21065.3500
2194.0000;21061.2100
2195.0000;21052.2700
2196.0000;21041.0700
2197.0000;21030.0500
2198.0000;21023.2800
2199.0000;21020.4300
2200.0000;21022.4300
2201.0000;21019.6200
2202.0000;21012.4700
2203.0000;21020.1000
2204.0000;21051.4500
2205.0000;21075.3100
2206.0000;21066.7100
2207.0000;21048.5400
2208.0000;21054.1300
2209.0000;21071.5100
2210.0000;21085.2500
2211.0000;21092.2400
2212.0000;21089.4800
2213.0000;21079.1600
2214.0000;21086.5600
2215.0000;21122.9800
2216.0000;21158.7400
2217.0000;21178.2300
2218.0000;21173.1700
2219.0000;21145.5600
2220.0000;21106.4400
2221.0000;21089.6200
2222.0000;21093.3800
2223.0000;21088.3900
2224.0000;21075.6900
2225.0000;21070.3300
2226.0000;21076.6700
2227.0000;21082.1800
2228.0000;21079.3700
2229.0000;21064.5900
2230.0000;21031.4900
2231.0000;20998.8400
2232.0000;20989.1100
2233.0000;20999.9200
2234.0000;21001.7000
2235.0000;20996.7300
2236.0000;20996.6400
2237.0000;21002.8700
2238.0000;21004.7000
2239.0000;20996.5000
2240.0000;20992.2100
2241.0000;21002.5400
2242.0000;21017.1700
2243.0000;21026.8300
2244.0000;21030.1500
2245.0000;21029.6900
2246.0000;21026.2100
2247.0000;21028.8700
2248.0000;21037.9600
2249.0000;21048.5400
2250.0000;21056.7700
2251.0000;21047.0200
2252.0000;21008.5600
2253.0000;20980.7400
2254.0000;21001.9900
2255.0000;21038.6900
2256.0000;21040.2800
2257.0000;21021.8300
2258.0000;21013.2300
2259.0000;21016.5900
2260.0000;21026.9400
2261.0000;21044.9000
2262.0000;21075.7900
2263.0000;21117.2300
2264.0000;21148.6700
2265.0000;21157.8100
2266.0000;21149.1600
2267.0000;21136.6500
2268.0000;21128.9400
2269.0000;21148.9900
2270.0000;21186.0800
2271.0000;21212.1700
2272.0000;21224.6100
2273.0000;21251.7000
2274.0000;21288.9600
2275.0000;21300.1200
2276.0000;21269.4400
2277.0000;21237.7400
2278.0000;21241.4200
2279.0000;21248.3700
2280.0000;21226.4400
2281.0000;21195.7600
2282.0000;21173.1300
2283.0000;21160.8600
2284.0000;21144.0500
2285.0000;21131.9200
2286.0000;21132.1300
2287.0000;21146.7400
2288.0000;21158.7200
2289.0000;21158.4000
2290.0000;21167.3200
2291.0000;21200.1300
2292.0000;21227.9100
2293.0000;21227.5600
2294.0000;21208.6700
2295.0000;21193.1600
2296.0000;21184.0300
2297.0000;21187.0900
2298.0000;21201.9700
2299.0000;21211.8800
2300.0000;21214.1400
2301.0000;21221.1300
2302.0000;21234.7100
2303.0000;21240.8100
2304.0000;21231.4600
2305.0000;21219.3700
2306.0000;21218.5600
2307.0000;21219.4600
2308.0000;21208.0300
2309.0000;21197.5100
2310.0000;21206.3300
2311.0000;21226.7900
2312.0000;21234.6500
2313.0000;21223.2100
2314.0000;21192.9300
2315.0000;21149.3900
2316.0000;21124.3000
2317.0000;21138.0100
2318.0000;21158.4100
2319.0000;21155.3400
2320.0000;21149.2100
2321.0000;21154.3400
2322.0000;21164.5000
2323.0000;21175.5300
2324.0000;21184.8800
2325.0000;21193.4700
2326.0000;21197.9100
2327.0000;21201.3200
2328.0000;21201.9900
2329.0000;21198.2200
2330.0000;21190.5600
2331.0000;21188.2800
2332.0000;21196.4700
2333.0000;21210.0600
2334.0000;21223.0400
2335.0000;21239.9000
2336.0000;21271.5900
2337.0000;21296.2900
2338.0000;21292.2500
2339.0000;21271.9900
2340.0000;21282.5500
2341.0000;21312.8800
2342.0000;21314.7800
2343.0000;21283.2900
2344.0000;21259.8800
2345.0000;21260.9400
2346.0000;21272.8100
2347.0000;21289.9000
2348.0000;21302.5400
2349.0000;21298.1300
2350.0000;21293.2000
2351.0000;21315.2000
2352.0000;21335.2500
2353.0000;21315.2700
2354.0000;21283.0400
2355.0000;21299.0400
2356.0000;21347.7800
2357.0000;21358.2500
2358.0000;21323.2000
2359.0000;21295.7500
2360.0000;21291.5400
2361.0000;21292.7300
2362.0000;21293.2200
2363.0000;21290.9500
2364.0000;21284.1600
2365.0000;21259.9000
2366.0000;21202.2500
2367.0000;21148.3600
2368.0000;21127.7400
2369.0000;21137.7000
2370.0000;21130.2400
2371.0000;21123.4600
2372.0000;21143.3200
2373.0000;21183.5500
2374.0000;21206.9200
2375.0000;21203.8900
2376.0000;21209.9400
2377.0000;21235.1300
2378.0000;21256.7800
2379.0000;21263.9600
2380.0000;21264.6500
2381.0000;21268.9300
2382.0000;21268.9100
2383.0000;21260.2400
2384.0000;21256.0800
2385.0000;21271.6400
2386.0000;21302.5300
2387.0000;21344.3900
2388.0000;21376.7500
2389.0000;21373.5600
2390.0000;21330.7700
2391.0000;21292.4900
2392.0000;21272.0300
2393.0000;21254.2700
2394.0000;21239.6800
2395.0000;21238.3800
2396.0000;21252.5400
2397.0000;21267.5000
2398.0000;21265.1600
2399.0000;21264.1400
2400.0000;21285.8800
2401.0000;21306.3800
2402.0000;21303.0900
2403.0000;21282.6200
2404.0000;21266.6300
2405.0000;21258.6900
2406.0000;21261.8000
2407.0000;21275.3000
2408.0000;21283.3900
2409.0000;21281.4900
2410.0000;21271.5300
2411.0000;21254.7200
2412.0000;21240.1100
2413.0000;21233.4200
2414.0000;21240.4400
2415.0000;21265.2900
2416.0000;21282.0700
2417.0000;21263.9200
2418.0000;21244.4000
2419.0000;21263.4400
2420.0000;21301.7400
2421.0000;21339.4800
2422.0000;21361.1400
2423.0000;21361.6400
2424.0000;21335.9100
2425.0000;21301.0600
2426.0000;21266.3400
2427.0000;21248.9000
2428.0000;21253.9700
2429.0000;21249.5100
2430.0000;21227.7300
2431.0000;21208.4700
2432.0000;21201.8200
2433.0000;21193.7300
2434.0000;21175.6100
2435.0000;21156.8500
2436.0000;21142.7400
2437.0000;21130.5100
2438.0000;21106.8700
2439.0000;21091.7700
2440.0000;21100.8400
2441.0000;21119.6700
2442.0000;21109.4400
2443.0000;21082.3900
2444.0000;21071.9300
2445.0000;21078.7500
2446.0000;21081.8900
2447.0000;21080.9800
2448.0000;21084.7700
2449.0000;21093.8600
2450.0000;21105.1000
2451.0000;21114.7800
2452.0000;21110.1100
2453.0000;21084.5600
2454.0000;21066.4100
2455.0000;21073.9600
2456.0000;21103.1300
2457.0000;21147.7900
2458.0000;21185.1000
2459.0000;21192.1200
2460.0000;21173.8900
2461.0000;21164.7700
2462.0000;21153.1600
2463.0000;21129.3100
2464.0000;21106.0400
2465.0000;21100.5100
2466.0000;21109.7300
2467.0000;21097.3900
2468.0000;21066.8500
2469.0000;21044.2200
2470.0000;21039.5100
2471.0000;21038.3400
2472.0000;21036.5100
2473.0000;21024.8700
2474.0000;20999.8100
2475.0000;20970.0900
2476.0000;20940.1900
2477.0000;20948.9700
2478.0000;21024.1000
2479.0000;21093.6500
2480.0000;21086.8000
2481.0000;21043.0700
2482.0000;21023.2200
2483.0000;21021.5800
2484.0000;21040.7000
2485.0000;21072.3900
2486.0000;21093.7200
2487.0000;21098.5400
2488.0000;21091.9600
2489.0000;21076.3200
2490.0000;21071.2200
2491.0000;21078.4500
2492.0000;21085.0200
2493.0000;21088.2200
2494.0000;21089.6500
2495.0000;21089.1300
2496.0000;21090.1200
2497.0000;21094.0800
2498.0000;21101.2300
2499.0000;21111.1600
2500.0000;21119.6300
2501.0000;21124.4100
2502.0000;21121.9300
2503.0000;21113.1100
2504.0000;21097.1300
2505.0000;21075.4000
2506.0000;21056.5100
2507.0000;21045.9400
2508.0000;21042.1400
2509.0000;21028.5100
2510.0000;21014.5700
2511.0000;21003.5500
2512.0000;20998.3000
2513.0000;20992.4900
2514.0000;20988.6800
2515.0000;20981.9700
2516.0000;20977.8300
2517.0000;20989.8500
2518.0000;21014.0400
2519.0000;21024.5600
2520.0000;21013.0600
2521.0000;20994.0900
2522.0000;20975.1700
2523.0000;20955.9700
2524.0000;20941.0300
2525.0000;20942.2000
2526.0000;20964.2100
2527.0000;20976.7400
2528.0000;20957.4200
2529.0000;20925.6800
2530.0000;20897.3200
2531.0000;20871.9400
2532.0000;20846.3900
2533.0000;20838.1300
2534.0000;20851.5700
2535.0000;20873.7800
2536.0000;20876.3900
2537.0000;20866.8400
2538.0000;20860.8000
2539.0000;20854.2900
2540.0000;20844.1800
2541.0000;20833.4600
2542.0000;20822.0900
2543.0000;20812.7200
2544.0000;20798.8500
2545.0000;20787.2700
2546.0000;20784.0400
2547.0000;20791.8100
2548.0000;20802.5800
2549.0000;20811.9700
2550.0000;20814.2300
2551.0000;20804.1300
2552.0000;20772.1600
2553.0000;20721.3300
2554.0000;20693.3300
2555.0000;20707.8700
2556.0000;20730.1600
2557.0000;20739.5200
2558.0000;20740.1500
2559.0000;20731.1600
2560.0000;20716.6400
2561.0000;20703.8700
2562.0000;20690.8400
2563.0000;20675.4100
2564.0000;20667.9800
2565.0000;20670.7800
2566.0000;20682.0900
2567.0000;20697.0900
2568.0000;20702.6100
2569.0000;20680.7800
2570.0000;20654.7900
2571.0000;20664.6800
2572.0000;20688.6900
2573.0000;20680.6500
2574.0000;20665.1000
2575.0000;20692.9300
2576.0000;20740.0800
2577.0000;20758.7300
2578.0000;20747.2500
2579.0000;20743.7000
2580.0000;20741.2400
2581.0000;20722.1600
2582.0000;20691.0600
2583.0000;20663.4700
2584.0000;20650.2400
2585.0000;20651.0200
2586.0000;20666.2000
2587.0000;20673.7400
2588.0000;20667.1600
2589.0000;20658.6000
2590.0000;20653.0800
2591.0000;20660.1500
2592.0000;20680.6600
2593.0000;20669.4500
2594.0000;20609.8800
2595.0000;20562.6800
2596.0000;20562.2200
2597.0000;20558.5300
2598.0000;20523.6000
2599.0000;20501.6900
2600.0000;20514.3800
2601.0000;20529.5600
2602.0000;20516.7400
2603.0000;20508.6800
2604.0000;20529.8100
2605.0000;20550.8000
2606.0000;20547.6300
2607.0000;20529.6000
2608.0000;20507.6600
2609.0000;20491.9900
2610.0000;20489.1200
2611.0000;20507.4300
2612.0000;20542.1900
2613.0000;20586.7800
2614.0000;20631.7100
2615.0000;20659.3600
2616.0000;20670.2200
2617.0000;20662.2400
2618.0000;20664.5600
2619.0000;20669.2100
2620.0000;20677.5400
2621.0000;20677.9500
2622.0000;20650.7900
2623.0000;20612.2900
2624.0000;20597.0900
2625.0000;20602.3900
2626.0000;20594.9800
2627.0000;20577.6200
2628.0000;20550.2900
2629.0000;20527.0100
2630.0000;20524.6500
2631.0000;20547.5300
2632.0000;20577.2500
2633.0000;20605.3100
2634.0000;20622.5900
2635.0000;20623.5300
2636.0000;20625.3300
2637.0000;20625.7400
2638.0000;20614.5000
2639.0000;20589.8500
2640.0000;20547.7700
2641.0000;20502.9900
2642.0000;20491.1200
2643.0000;20526.2800
2644.0000;20570.1900
2645.0000;20604.4500
2646.0000;20627.3200
2647.0000;20628.9700
2648.0000;20609.0200
2649.0000;20573.5400
2650.0000;20551.2500
2651.0000;20558.5800
2652.0000;20566.4400
2653.0000;20561.6700
2654.0000;20556.1400
2655.0000;20552.6900
2656.0000;20523.8100
2657.0000;20460.6900
2658.0000;20418.6100
2659.0000;20431.8200
2660.0000;20465.9900
2661.0000;20493.1800
2662.0000;20516.2200
2663.0000;20528.8100
2664.0000;20518.9000
2665.0000;20482.7800
2666.0000;20458.1600
2667.0000;20475.3900
2668.0000;20487.8900
2669.0000;20461.3700
2670.0000;20426.1400
2671.0000;20403.3500
2672.0000;20376.1200
2673.0000;20330.1500
2674.0000;20299.5500
2675.0000;20307.9300
2676.0000;20315.2000
2677.0000;20276.4500
2678.0000;20237.0300
2679.0000;20228.4000
2680.0000;20237.2900
2681.0000;20245.8000
2682.0000;20253.0300
2683.0000;20253.1300
2684.0000;20238.6800
2685.0000;20202.5900
2686.0000;20177.0800
2687.0000;20198.1300
2688.0000;20223.3800
2689.0000;20199.0100
2690.0000;20170.6600
2691.0000;20186.0000
2692.0000;20211.1600
2693.0000;20210.5100
2694.0000;20196.8400
2695.0000;20181.1000
2696.0000;20170.5600
2697.0000;20172.1000
2698.0000;20187.4100
2699.0000;20212.5900
2700.0000;20233.9100
2701.0000;20238.1200
2702.0000;20229.4800
2703.0000;20228.5300
2704.0000;20218.3600
2705.0000;20186.6700
2706.0000;20151.9500
2707.0000;20126.2800
2708.0000;20123.6200
2709.0000;20141.8400
2710.0000;20171.6400
2711.0000;20190.3800
2712.0000;20193.7400
2713.0000;20184.5000
2714.0000;20166.7000
2715.0000;20156.0700
2716.0000;20150.6400
2717.0000;20145.5700
2718.0000;20143.1500
2719.0000;20141.6400
2720.0000;20134.2000
2721.0000;20106.4900
2722.0000;20083.7700
2723.0000;20097.6100
2724.0000;20107.9800
2725.0000;20057.3600
2726.0000;19996.3800
2727.0000;19971.5300
2728.0000;19972.5400
2729.0000;19967.9600
2730.0000;19973.1900
2731.0000;19982.4300
2732.0000;19998.8400
2733.0000;20018.7500
2734.0000;20042.6300
2735.0000;20079.5100
2736.0000;20098.3200
2737.0000;20076.6000
2738.0000;20046.8500
2739.0000;20056.4500
2740.0000;20069.1800
2741.0000;20051.0600
2742.0000;20020.2500
2743.0000;19989.5800
2744.0000;19968.4600
2745.0000;19961.0800
2746.0000;19970.2400
2747.0000;19986.7000
2748.0000;20008.4100
2749.0000;20031.7300
2750.0000;20034.0300
2751.0000;20000.5300
2752.0000;19963.5200
2753.0000;19957.1800
2754.0000;19952.7900
2755.0000;19924.1600
2756.0000;19907.3600
2757.0000;19925.4400
2758.0000;19937.3300
2759.0000;19909.1900
2760.0000;19884.7700
2761.0000;19893.8800
2762.0000;19905.0000
2763.0000;19896.8000
2764.0000;19895.8000
2765.0000;19915.3600
2766.0000;19917.8900
2767.0000;19883.5700
2768.0000;19858.8700
2769.0000;19871.3700
2770.0000;19864.9300
2771.0000;19815.5000
2772.0000;19784.0000
2773.0000;19800.5400
2774.0000;19821.6700
2775.0000;19825.9400
2776.0000;19836.2000
2777.0000;19854.9400
2778.0000;19848.8100
2779.0000;19809.7800
2780.0000;19785.6600
2781.0000;19795.4600
2782.0000;19812.7000
2783.0000;19826.5200
2784.0000;19827.6300
2785.0000;19813.7800
2786.0000;19808.0200
2787.0000;19817.3000
2788.0000;19839.7200
2789.0000;19864.1800
2790.0000;19852.6600
2791.0000;19807.2900
2792.0000;19783.6500
2793.0000;19788.9400
2794.0000;19772.2800
2795.0000;19742.8800
2796.0000;19738.2900
2797.0000;19758.5000
2798.0000;19766.4400
2799.0000;19757.8600
2800.0000;19735.8300
2801.0000;19711.9600
2802.0000;19706.0900
2803.0000;19722.2400
2804.0000;19744.6400
2805.0000;19769.3000
2806.0000;19793.2600
2807.0000;19804.5200
2808.0000;19802.5100
2809.0000;19787.2200
2810.0000;19776.2100
2811.0000;19766.0000
2812.0000;19749.5500
2813.0000;19736.1000
2814.0000;19724.3700
2815.0000;19728.0500
2816.0000;19753.5900
2817.0000;19781.4300
2818.0000;19784.9900
2819.0000;19779.7700
2820.0000;19789.2100
2821.0000;19795.4000
2822.0000;19789.1500
2823.0000;19774.1500
2824.0000;19753.5100
2825.0000;19751.1900
2826.0000;19783.8000
2827.0000;19804.0300
2828.0000;19780.5500
2829.0000;19750.2800
2830.0000;19735.8900
2831.0000;19726.5400
2832.0000;19721.1200
2833.0000;19717.2800
2834.0000;19714.3700
2835.0000;19722.6600
2836.0000;19742.3500
2837.0000;19757.5700
2838.0000;19758.9800
2839.0000;19749.2100
2840.0000;19730.4100
2841.0000;19715.0800
2842.0000;19707.1700
2843.0000;19695.3000
2844.0000;19676.7100
2845.0000;19633.9700
2846.0000;19585.2800
2847.0000;19556.6800
2848.0000;19558.6900
2849.0000;19566.5900
2850.0000;19582.8300
2851.0000;19596.1200
2852.0000;19607.3200
2853.0000;19629.1700
2854.0000;19642.8400
2855.0000;19630.3400
2856.0000;19607.6000
2857.0000;19608.8100
2858.0000;19611.5600
2859.0000;19587.9400
2860.0000;19566.0800
2861.0000;19567.4200
2862.0000;19577.4000
2863.0000;19582.1000
2864.0000;19570.6500
2865.0000;19534.2900
2866.0000;19508.1200
2867.0000;19516.3300
2868.0000;19532.5600
2869.0000;19540.5100
2870.0000;19548.5500
2871.0000;19554.7900
2872.0000;19548.8300
2873.0000;19528.5400
2874.0000;19502.0200
2875.0000;19480.7200
2876.0000;19492.6900
2877.0000;19531.3900
2878.0000;19522.3800
2879.0000;19479.2300
2880.0000;19494.2100
2881.0000;19551.9400
2882.0000;19567.6200
2883.0000;19552.4300
2884.0000;19562.5200
2885.0000;19578.2600
2886.0000;19575.6500
2887.0000;19557.4100
2888.0000;19538.4900
2889.0000;19513.0700
2890.0000;19470.7900
2891.0000;19437.1400
2892.0000;19425.1900
2893.0000;19432.0400
2894.0000;19442.4400
2895.0000;19459.6700
2896.0000;19477.4200
2897.0000;19495.6100
2898.0000;19512.1600
2899.0000;19546.1600
2900.0000;19600.7300
2901.0000;19641.5000
2902.0000;19651.3500
2903.0000;19659.1900
2904.0000;19664.9000
2905.0000;19653.7200
2906.0000;19629.9000
2907.0000;19621.1900
2908.0000;19623.0700
2909.0000;19598.1900
2910.0000;19553.6200
2911.0000;19504.4300
2912.0000;19467.9300
2913.0000;19441.6300
2914.0000;19442.4800
2915.0000;19460.9700
2916.0000;19484.2200
2917.0000;19481.9100
2918.0000;19470.7200
2919.0000;19469.8700
2920.0000;19469.1500
2921.0000;19463.9600
2922.0000;19458.5600
2923.0000;19455.2700
2924.0000;19447.4800
2925.0000;19434.8700
2926.0000;19438.5600
2927.0000;19460.0700
2928.0000;19456.5900
2929.0000;19420.5100
2930.0000;19384.3500
2931.0000;19358.2400
2932.0000;19324.7500
2933.0000;19303.7300
2934.0000;19315.5800
2935.0000;19346.6400
2936.0000;19340.7400
2937.0000;19323.1200
2938.0000;19353.1500
2939.0000;19375.5400
2940.0000;19328.1400
2941.0000;19258.9500
2942.0000;19222.9100
2943.0000;19213.5100
2944.0000;19222.0100
2945.0000;19243.2400
2946.0000;19262.8500
2947.0000;19266.5600
2948.0000;19246.4600
2949.0000;19233.3900
2950.0000;19234.8600
2951.0000;19216.7800
2952.0000;19180.3600
2953.0000;19153.9100
2954.0000;19138.9000
2955.0000;19092.0200
2956.0000;19042.3600
2957.0000;19024.4500
2958.0000;19047.4500
2959.0000;19086.8600
2960.0000;19127.4000
2961.0000;19139.7100
2962.0000;19131.9300
2963.0000;19126.2000
2964.0000;19117.1000
2965.0000;19109.0800
2966.0000;19106.4100
2967.0000;19111.4900
2968.0000;19109.7100
2969.0000;19097.7200
2970.0000;19106.4400
2971.0000;19137.2200
2972.0000;19142.0500
2973.0000;19123.2400
2974.0000;19139.4300
2975.0000;19178.4800
2976.0000;19196.6000
2977.0000;19181.7200
2978.0000;19131.4700
2979.0000;19080.2800
2980.0000;19075.4700
2981.0000;19105.2700
2982.0000;19146.0400
2983.0000;19144.3000
2984.0000;19055.0100
2985.0000;18986.0900
2986.0000;19005.4300
2987.0000;19017.8100
2988.0000;18991.0800
2989.0000;18973.6700
2990.0000;18979.8900
2991.0000;19009.4400
2992.0000;19044.0500
2993.0000;19033.0300
2994.0000;18988.4900
2995.0000;18970.9300
2996.0000;18982.7900
2997.0000;19014.0600
2998.0000;19040.3400
2999.0000;19022.9200
3000.0000;19009.3300
3001.0000;19049.5400
3002.0000;19078.0200
3003.0000;19055.6900
3004.0000;19017.9200
3005.0000;18984.6200
3006.0000;18948.5100
3007.0000;18917.6300
3008.0000;18891.7100
3009.0000;18874.1300
3010.0000;18834.6900
3011.0000;18803.7800
3012.0000;18828.3300
3013.0000;18887.2100
3014.0000;18920.8000
3015.0000;18930.4900
3016.0000;18927.9100
3017.0000;18924.3800
3018.0000;18944.3000
3019.0000;18946.9000
3020.0000;18912.4600
3021.0000;18874.5800
3022.0000;18851.2200
3023.0000;18822.0600
3024.0000;18792.7300
3025.0000;18777.5200
3026.0000;18777.2800
3027.0000;18757.9600
3028.0000;18734.5800
3029.0000;18730.4100
3030.0000;18742.9700
3031.0000;18759.7100
3032.0000;18763.6400
3033.0000;18735.6400
3034.0000;18704.2700
3035.0000;18692.7400
3036.0000;18674.2600
3037.0000;18644.4900
3038.0000;18646.6100
3039.0000;18684.2100
3040.0000;18691.6200
3041.0000;18667.5800
3042.0000;18670.8300
3043.0000;18687.3300
3044.0000;18670.3900
3045.0000;18643.6200
3046.0000;18644.6900
3047.0000;18658.4600
3048.0000;18668.2800
3049.0000;18662.4300
3050.0000;18632.4100
3051.0000;18608.4900
3052.0000;18605.6700
3053.0000;18596.4700
3054.0000;18578.9600
3055.0000;18570.4600
3056.0000;18569.7300
3057.0000;18554.4600
3058.0000;18525.7200
3059.0000;18481.1500
3060.0000;18439.5600
3061.0000;18409.4900
3062.0000;18402.3600
3063.0000;18412.3800
3064.0000;18430.7200
3065.0000;18442.1100
3066.0000;18449.6100
3067.0000;18450.9600
3068.0000;18449.2200
3069.0000;18446.0800
3070.0000;18447.9500
3071.0000;18452.0800
3072.0000;18448.4300
3073.0000;18443.6000
3074.0000;18451.9100
3075.0000;18456.7100
3076.0000;18440.4200
3077.0000;18425.8600
3078.0000;18428.6600
3079.0000;18427.9400
3080.0000;18417.3700
3081.0000;18421.8700
3082.0000;18441.5100
3083.0000;18444.8600
3084.0000;18432.9800
3085.0000;18423.8800
3086.0000;18434.1700
3087.0000;18491.3900
3088.0000;18542.0300
3089.0000;18526.7800
3090.0000;18488.2200
3091.0000;18468.2400
3092.0000;18458.5200
3093.0000;18460.2700
3094.0000;18455.6500
3095.0000;18442.3900
3096.0000;18426.9800
3097.0000;18417.7100
3098.0000;18422.7800
3099.0000;18434.6800
3100.0000;18426.5600
3101.0000;18425.7500
3102.0000;18458.7100
3103.0000;18495.3800
3104.0000;18513.0800
3105.0000;18510.2700
3106.0000;18486.6700
3107.0000;18451.4700
3108.0000;18420.6100
3109.0000;18413.7300
3110.0000;18420.7300
3111.0000;18390.3900
3112.0000;18346.7000
3113.0000;18320.1600
3114.0000;18299.6200
3115.0000;18268.8100
3116.0000;18240.8300
3117.0000;18221.0500
3118.0000;18188.8600
3119.0000;18148.3200
3120.0000;18122.4200
3121.0000;18125.4000
3122.0000;18146.6000
3123.0000;18179.3300
3124.0000;18206.1300
3125.0000;18213.0300
3126.0000;18197.7100
3127.0000;18165.9900
3128.0000;18132.5300
3129.0000;18104.6900
3130.0000;18092.0200
3131.0000;18081.4300
3132.0000;18071.5900
3133.0000;18054.5400
3134.0000;18031.1900
3135.0000;17991.0900
3136.0000;17962.3100
3137.0000;17963.3900
3138.0000;17978.3100
3139.0000;17982.5900
3140.0000;18009.5300
3141.0000;18060.0700
3142.0000;18079.8300
3143.0000;18057.8000
3144.0000;18054.2600
3145.0000;18059.4600
3146.0000;18039.8500
3147.0000;18007.6200
3148.0000;17980.6700
3149.0000;17950.1300
3150.0000;17905.2200
3151.0000;17891.6500
3152.0000;17922.5900
3153.0000;17925.2500
3154.0000;17890.3300
3155.0000;17878.2400
3156.0000;17886.3700
3157.0000;17882.2300
3158.0000;17868.9600
3159.0000;17846.9000
3160.0000;17832.3600
3161.0000;17838.1500
3162.0000;17839.4000
3163.0000;17824.8000
3164.0000;17805.7100
3165.0000;17792.0400
3166.0000;17794.9600
3167.0000;17812.0600
3168.0000;17823.6400
3169.0000;17826.7100
3170.0000;17822.7300
3171.0000;17805.7600
3172.0000;17778.2100
3173.0000;17772.4200
3174.0000;17795.4500
3175.0000;17783.6600
3176.0000;17743.1800
3177.0000;17743.8600
3178.0000;17766.1300
3179.0000;17748.0500
3180.0000;17728.6300
3181.0000;17742.4200
3182.0000;17758.5800
3183.0000;17757.9700
3184.0000;17763.5200
3185.0000;17773.1500
3186.0000;17754.3600
3187.0000;17713.8500
3188.0000;17683.4800
3189.0000;17666.6900
3190.0000;17649.1300
3191.0000;17644.3400
3192.0000;17651.0700
3193.0000;17664.9200
3194.0000;17679.5800
3195.0000;17698.1200
3196.0000;17714.0800
3197.0000;17719.1900
3198.0000;17720.7200
3199.0000;17751.2100
3200.0000;17773.5000
3201.0000;17756.4800
3202.0000;17713.1300
3203.0000;17663.1100
3204.0000;17662.9100
3205.0000;17712.2200
3206.0000;17688.7700
3207.0000;17618.9000
3208.0000;17608.2900
3209.0000;17629.7200
3210.0000;17631.9800
3211.0000;17618.7400
3212.0000;17588.7800
3213.0000;17567.0900
3214.0000;17566.9400
3215.0000;17575.6300
3216.0000;17587.7200
3217.0000;17593.9800
3218.0000;17584.4500
3219.0000;17555.1700
3220.0000;17515.7100
3221.0000;17478.9700
3222.0000;17462.1300
3223.0000;17471.0800
3224.0000;17479.2200
3225.0000;17474.4200
3226.0000;17437.3100
3227.0000;17393.1500
3228.0000;17379.8100
3229.0000;17378.7900
3230.0000;17363.4600
3231.0000;17359.0300
3232.0000;17368.6400
3233.0000;17353.7000
3234.0000;17319.3900
3235.0000;17313.3100
3236.0000;17317.2300
3237.0000;17281.0100
3238.0000;17245.6900
3239.0000;17243.2600
3240.0000;17253.8100
3241.0000;17264.1400
3242.0000;17265.1200
3243.0000;17252.0200
3244.0000;17228.9800
3245.0000;17208.3900
3246.0000;17211.6100
3247.0000;17206.7600
3248.0000;17163.3400
3249.0000;17126.4700
3250.0000;17118.0300
3251.0000;17108.9500
3252.0000;17102.2700
3253.0000;17100.7400
3254.0000;17114.1600
3255.0000;17148.8500
3256.0000;17184.6100
3257.0000;17202.1200
3258.0000;17214.6900
3259.0000;17225.3600
3260.0000;17233.3300
3261.0000;17234.0300
3262.0000;17230.6600
3263.0000;17214.0900
3264.0000;17178.7600
3265.0000;17144.5500
3266.0000;17127.7700
3267.0000;17118.1700
3268.0000;17115.8200
3269.0000;17118.2200
3270.0000;17125.9600
3271.0000;17140.6200
3272.0000;17140.4200
3273.0000;17105.8600
3274.0000;17066.7700
3275.0000;17046.8600
3276.0000;17041.3700
3277.0000;17046.1300
3278.0000;17022.3100
3279.0000;17001.2000
3280.0000;17038.3200
3281.0000;17083.9800
3282.0000;17085.6600
3283.0000;17097.6600
3284.0000;17132.0300
3285.0000;17144.9500
3286.0000;17126.2900
3287.0000;17095.5800
3288.0000;17058.4200
3289.0000;17025.3800
3290.0000;16999.0800
3291.0000;16977.7000
3292.0000;16949.6200
3293.0000;16916.4400
3294.0000;16876.5900
3295.0000;16847.6700
3296.0000;16831.0100
3297.0000;16827.4700
3298.0000;16821.6300
3299.0000;16808.1700
3300.0000;16785.8000
3301.0000;16772.6300
3302.0000;16770.2200
3303.0000;16752.3700
3304.0000;16739.1300
3305.0000;16750.4300
3306.0000;16768.6500
3307.0000;16776.7700
3308.0000;16752.4400
3309.0000;16702.1000
3310.0000;16681.2700
3311.0000;16682.6000
3312.0000;16656.7600
3313.0000;16639.5600
3314.0000;16649.4600
3315.0000;16648.3600
3316.0000;16626.3900
3317.0000;16623.3800
3318.0000;16635.1000
3319.0000;16629.1700
3320.0000;16615.3700
3321.0000;16607.0500
3322.0000;16586.2500
3323.0000;16552.5500
3324.0000;16551.1600
3325.0000;16570.3100
3326.0000;16525.3800
3327.0000;16463.0100
3328.0000;16455.9500
3329.0000;16464.4900
3330.0000;16459.2400
3331.0000;16462.9700
3332.0000;16474.4900
3333.0000;16475.0100
3334.0000;16472.0500
3335.0000;16483.5800
3336.0000;16503.7400
3337.0000;16526.8500
3338.0000;16540.8800
3339.0000;16537.0800
3340.0000;16518.6300
3341.0000;16493.8700
3342.0000;16474.8100
3343.0000;16474.7100
3344.0000;16496.1100
3345.0000;16514.3200
3346.0000;16511.8300
3347.0000;16479.0800
3348.0000;16442.2500
3349.0000;16462.6000
3350.0000;16505.3900
3351.0000;16520.9900
3352.0000;16528.3200
3353.0000;16529.1600
3354.0000;16513.3700
3355.0000;16485.4200
3356.0000;16456.2700
3357.0000;16445.5200
3358.0000;16463.9400
3359.0000;16480.8400
3360.0000;16478.1900
3361.0000;16479.4900
3362.0000;16482.4000
3363.0000;16474.3000
3364.0000;16467.5600
3365.0000;16477.0100
3366.0000;16484.2800
3367.0000;16481.7000
3368.0000;16488.3300
3369.0000;16495.2100
3370.0000;16474.6400
3371.0000;16448.0700
3372.0000;16443.7300
3373.0000;16441.5400
3374.0000;16433.6200
3375.0000;16430.3000
3376.0000;16434.4200
3377.0000;16448.8900
3378.0000;16447.3500
3379.0000;16405.9300
3380.0000;16359.5600
3381.0000;16332.7800
3382.0000;16300.5500
3383.0000;16275.5300
3384.0000;16262.7800
3385.0000;16268.7400
3386.0000;16285.0800
3387.0000;16271.4300
3388.0000;16224.3300
3389.0000;16236.8400
3390.0000;16283.2900
3391.0000;16264.5900
3392.0000;16226.6300
3393.0000;16215.9200
3394.0000;16210.1400
3395.0000;16199.8300
3396.0000;16157.6900
3397.0000;16113.5600
3398.0000;16122.2200
3399.0000;16135.0500
3400.0000;16105.8800
3401.0000;16085.8100
3402.0000;16084.2100
3403.0000;16054.5600
3404.0000;16023.8600
3405.0000;16029.4400
3406.0000;16049.6700
3407.0000;16062.2500
3408.0000;16075.5500
3409.0000;16085.5500
3410.0000;16090.3300
3411.0000;16089.8800
3412.0000;16093.3600
3413.0000;16083.6000
3414.0000;16056.0000
3415.0000;16011.7500
3416.0000;15972.6100
3417.0000;15966.6400
3418.0000;15972.4900
3419.0000;15951.4300
3420.0000;15934.7700
3421.0000;15931.3000
3422.0000;15914.2500
3423.0000;15895.4700
3424.0000;15894.9700
3425.0000;15896.2100
3426.0000;15883.2400
3427.0000;15904.9500
3428.0000;15949.3800
3429.0000;15926.9800
3430.0000;15872.2300
3431.0000;15858.5900
3432.0000;15865.0600
3433.0000;15879.2400
3434.0000;15898.5900
3435.0000;15907.7800
3436.0000;15886.7400
3437.0000;15853.1100
3438.0000;15833.7900
3439.0000;15838.3200
3440.0000;15858.1200
3441.0000;15826.0500
3442.0000;15765.1400
3443.0000;15734.3900
3444.0000;15721.2700
3445.0000;15713.6200
3446.0000;15741.6600
3447.0000;15785.9900
3448.0000;15778.1900
3449.0000;15744.5700
3450.0000;15737.0000
3451.0000;15722.4000
3452.0000;15697.4800
3453.0000;15696.0300
3454.0000;15707.2000
3455.0000;15682.2300
3456.0000;15664.3800
3457.0000;15681.0800
3458.0000;15695.5800
3459.0000;15697.7600
3460.0000;15703.4600
3461.0000;15696.3900
3462.0000;15659.5700
3463.0000;15657.0600
3464.0000;15703.4600
3465.0000;15695.2400
3466.0000;15639.8000
3467.0000;15597.2500
3468.0000;15581.5000
3469.0000;15597.5700
3470.0000;15613.8200
3471.0000;15616.0500
3472.0000;15600.7000
3473.0000;15585.6600
3474.0000;15595.8300
3475.0000;15606.7900
3476.0000;15606.1400
3477.0000;15602.0900
3478.0000;15589.5100
3479.0000;15562.6400
3480.0000;15529.1000
3481.0000;15497.9600
3482.0000;15481.7000
3483.0000;15478.4300
3484.0000;15447.0000
3485.0000;15423.6400
3486.0000;15436.4900
3487.0000;15444.5500
3488.0000;15430.8100
3489.0000;15401.3800
3490.0000;15372.4400
3491.0000;15362.5400
3492.0000;15372.2000
3493.0000;15392.2700
3494.0000;15388.5200
3495.0000;15369.0000
3496.0000;15372.1200
3497.0000;15386.6000
3498.0000;15401.4200
3499.0000;15416.3500
3500.0000;15421.3300
3501.0000;15404.5100
3502.0000;15382.5000
3503.0000;15381.0200
3504.0000;15340.6900
3505.0000;15267.6000
3506.0000;15263.8500
3507.0000;15302.1200
3508.0000;15294.9600
3509.0000;15278.5000
3510.0000;15266.4400
3511.0000;15240.1100
3512.0000;15214.9600
3513.0000;15219.0400
3514.0000;15208.3300
3515.0000;15154.1200
3516.0000;15112.2100
3517.0000;15105.3000
3518.0000;15116.9400
3519.0000;15145.1300
3520.0000;15168.8100
3521.0000;15178.6500
3522.0000;15170.7300
3523.0000;15167.1700
3524.0000;15159.3900
3525.0000;15140.4700
3526.0000;15120.6100
3527.0000;15105.7700
3528.0000;15087.6700
3529.0000;15070.9300
3530.0000;15053.6200
3531.0000;15038.1600
3532.0000;15024.7000
3533.0000;15008.9300
3534.0000;14994.2400
3535.0000;14977.1200
3536.0000;14970.4100
3537.0000;14977.4100
3538.0000;14980.7400
3539.0000;14978.5000
3540.0000;14975.2100
3541.0000;14977.4900
3542.0000;14988.0800
3543.0000;14975.4700
3544.0000;14943.6400
3545.0000;14930.8400
3546.0000;14914.5300
3547.0000;14875.9800
3548.0000;14842.1200
3549.0000;14821.9500
3550.0000;14782.9200
3551.0000;14757.7500
3552.0000;14765.0300
3553.0000;14759.4700
3554.0000;14731.4100
3555.0000;14707.7700
3556.0000;14695.1800
3557.0000;14693.5300
3558.0000;14689.9300
3559.0000;14676.9400
3560.0000;14647.6500
3561.0000;14629.2800
3562.0000;14649.4800
3563.0000;14661.8400
3564.0000;14648.7000
3565.0000;14645.3600
3566.0000;14645.2000
3567.0000;14636.9300
3568.0000;14600.7400
3569.0000;14547.0900
3570.0000;14552.3900
3571.0000;14593.7900
3572.0000;14597.7200
3573.0000;14604.4400
3574.0000;14624.1300
3575.0000;14636.2600
3576.0000;14625.2000
3577.0000;14583.7700
3578.0000;14541.2400
3579.0000;14524.4100
3580.0000;14537.0900
3581.0000;14559.8600
3582.0000;14548.6300
3583.0000;14518.6600
3584.0000;14485.0700
3585.0000;14458.0300
3586.0000;14442.8400
3587.0000;14423.5000
3588.0000;14425.0700
3589.0000;14446.0700
3590.0000;14434.3900
3591.0000;14404.2100
3592.0000;14392.7900
3593.0000;14403.0700
3594.0000;14427.5400
3595.0000;14420.2500
3596.0000;14403.6800
3597.0000;14428.3600
3598.0000;14468.6700
3599.0000;14500.9000
3600.0000;14505.9300
3601.0000;14480.0100
3602.0000;14444.3000
3603.0000;14413.9200
3604.0000;14405.2900
3605.0000;14420.9300
3606.0000;14440.3900
3607.0000;14424.2600
3608.0000;14414.7000
3609.0000;14426.8600
3610.0000;14440.4000
3611.0000;14439.8600
3612.0000;14412.3300
3613.0000;14380.0200
3614.0000;14364.0600
3615.0000;14375.1400
3616.0000;14390.0800
3617.0000;14374.4500
3618.0000;14365.6200
3619.0000;14368.9500
3620.0000;14359.0800
3621.0000;14330.7000
3622.0000;14284.3700
3623.0000;14268.3900
3624.0000;14278.1900
3625.0000;14228.9600
3626.0000;14200.2400
3627.0000;14243.5400
3628.0000;14264.5000
3629.0000;14247.8000
3630.0000;14224.1900
3631.0000;14213.0100
3632.0000;14228.0800
3633.0000;14233.0400
3634.0000;14224.3600
3635.0000;14211.2100
3636.0000;14205.5400
3637.0000;14212.0400
3638.0000;14204.7600
3639.0000;14193.5800
3640.0000;14199.7000
3641.0000;14206.0400
3642.0000;14199.9500
3643.0000;14163.2300
3644.0000;14131.2700
3645.0000;14149.0400
3646.0000;14137.3000
3647.0000;14087.2400
3648.0000;14065.4000
3649.0000;14073.1200
3650.0000;14095.4400
3651.0000;14098.9600
3652.0000;14070.4200
3653.0000;14016.4600
3654.0000;13981.8300
3655.0000;13996.0700
3656.0000;13988.2100
3657.0000;13960.3500
3658.0000;13941.6500
3659.0000;13935.9500
3660.0000;13942.5300
3661.0000;13950.6700
3662.0000;13939.9800
3663.0000;13886.7500
3664.0000;13851.4000
3665.0000;13856.3400
3666.0000;13855.0500
3667.0000;13848.2400
3668.0000;13833.0000
3669.0000;13827.8600
3670.0000;13827.8900
3671.0000;13794.6500
3672.0000;13767.1300
3673.0000;13772.2600
3674.0000;13769.3200
3675.0000;13755.6200
3676.0000;13738.9200
3677.0000;13717.5000
3678.0000;13701.0400
3679.0000;13720.4400
3680.0000;13747.0800
3681.0000;13729.8100
3682.0000;13735.1400
3683.0000;13768.0100
3684.0000;13763.5000
3685.0000;13743.6800
3686.0000;13736.0100
3687.0000;13704.7900
3688.0000;13669.9400
3689.0000;13673.1000
3690.0000;13681.3100
3691.0000;13671.4500
3692.0000;13674.0800
3693.0000;13671.5000
3694.0000;13638.1400
3695.0000;13605.8500
3696.0000;13587.4700
3697.0000;13549.5500
3698.0000;13525.0000
3699.0000;13532.9500
3700.0000;13541.2600
3701.0000;13545.4300
3702.0000;13548.6400
3703.0000;13575.5900
3704.0000;13624.8900
3705.0000;13642.5200
3706.0000;13627.2000
3707.0000;13606.2500
3708.0000;13590.3900
3709.0000;13585.1800
3710.0000;13572.5500
3711.0000;13550.3400
3712.0000;13520.6700
3713.0000;13514.3800
3714.0000;13532.9800
3715.0000;13554.0900
3716.0000;13545.1600
3717.0000;13502.6500
3718.0000;13493.1400
3719.0000;13495.5300
3720.0000;13476.1700
3721.0000;13471.2500
3722.0000;13470.8800
3723.0000;13424.5200
3724.0000;13386.5500
3725.0000;13387.6600
3726.0000;13383.5000
3727.0000;13367.6700
3728.0000;13334.1700
3729.0000;13308.9100
3730.0000;13306.3900
3731.0000;13316.8100
3732.0000;13332.7000
3733.0000;13336.0500
3734.0000;13304.9400
3735.0000;13263.9200
3736.0000;13259.6500
3737.0000;13261.6100
3738.0000;13257.9100
3739.0000;13253.2300
3740.0000;13251.6900
3741.0000;13253.2000
3742.0000;13226.3600
3743.0000;13192.7300
3744.0000;13198.2400
3745.0000;13191.0400
3746.0000;13156.2600
3747.0000;13130.4500
3748.0000;13116.8400
3749.0000;13109.2400
3750.0000;13063.6100
3751.0000;13016.2800
3752.0000;13045.3000
3753.0000;13077.2000
3754.0000;13074.7300
3755.0000;13086.4800
3756.0000;13097.0300
3757.0000;13094.6900
3758.0000;13088.8100
3759.0000;13076.4300
3760.0000;13049.0300
3761.0000;13038.0700
3762.0000;13058.0400
3763.0000;13092.7700
3764.0000;13117.7700
3765.0000;13111.3900
3766.0000;13094.2200
3767.0000;13082.1000
3768.0000;13092.7600
3769.0000;13112.4000
3770.0000;13123.1100
3771.0000;13105.5800
3772.0000;13079.0400
3773.0000;13070.8700
3774.0000;13075.7000
3775.0000;13093.7800
3776.0000;13120.0800
3777.0000;13119.5400
3778.0000;13089.2000
3779.0000;13080.4300
3780.0000;13071.8000
3781.0000;13049.0000
3782.0000;13039.9000
3783.0000;13039.9200
3784.0000;13028.0900
3785.0000;13021.2200
3786.0000;13019.9800
3787.0000;13005.4400
3788.0000;12997.3800
3789.0000;13005.5700
3790.0000;13018.5600
3791.0000;13014.0600
3792.0000;12973.8900
3793.0000;12938.4300
3794.0000;12933.0200
3795.0000;12962.7400
3796.0000;12977.5100
3797.0000;12955.8400
3798.0000;12964.6000
3799.0000;12968.7500
3800.0000;12936.1500
3801.0000;12900.8800
3802.0000;12869.2500
3803.0000;12831.7200
3804.0000;12808.5700
3805.0000;12801.3200
3806.0000;12771.0500
3807.0000;12747.8900
3808.0000;12746.1800
3809.0000;12740.7900
3810.0000;12722.6900
3811.0000;12684.8700
3812.0000;12671.6500
3813.0000;12680.5100
3814.0000;12667.0500
3815.0000;12646.5400
3816.0000;12628.2200
3817.0000;12618.2700
3818.0000;12605.9500
3819.0000;12581.4600
3820.0000;12564.2700
3821.0000;12555.6000
3822.0000;12546.0100
3823.0000;12525.8400
3824.0000;12492.7000
3825.0000;12439.6000
3826.0000;12405.1500
3827.0000;12402.5800
3828.0000;12384.2100
3829.0000;12372.5500
3830.0000;12377.2800
3831.0000;12352.7000
3832.0000;12332.8500
3833.0000;12368.8800
3834.0000;12379.7400
3835.0000;12352.2700
3836.0000;12332.2400
3837.0000;12314.1300
3838.0000;12298.0200
3839.0000;12268.3100
3840.0000;12250.1900
3841.0000;12260.1700
3842.0000;12279.4800
3843.0000;12293.2100
3844.0000;12286.7400
3845.0000;12282.8900
3846.0000;12285.3200
3847.0000;12283.0500
3848.0000;12290.2500
3849.0000;12306.8600
3850.0000;12316.1800
3851.0000;12314.5400
3852.0000;12306.6500
3853.0000;12319.9000
3854.0000;12324.2000
3855.0000;12288.1400
3856.0000;12280.8200
3857.0000;12298.9800
3858.0000;12298.2000
3859.0000;12285.9200
3860.0000;12267.0000
3861.0000;12246.0000
3862.0000;12242.8100
3863.0000;12259.6100
3864.0000;12257.3500
3865.0000;12255.2600
3866.0000;12270.1500
3867.0000;12293.5000
3868.0000;12293.1700
3869.0000;12242.1600
3870.0000;12206.7400
3871.0000;12194.4000
3872.0000;12162.7100
3873.0000;12135.2200
3874.0000;12122.6900
3875.0000;12120.1100
3876.0000;12116.4100
3877.0000;12102.5500
3878.0000;12090.5400
3879.0000;12085.7800
3880.0000;12085.4600
3881.0000;12057.1900
3882.0000;12022.1600
3883.0000;12012.2900
3884.0000;12001.7800
3885.0000;11989.3300
3886.0000;11978.2100
3887.0000;11961.6800
3888.0000;11941.9000
3889.0000;11920.9100
3890.0000;11910.6600
3891.0000;11905.8200
3892.0000;11859.6300
3893.0000;11837.4000
3894.0000;11871.9600
3895.0000;11868.4600
3896.0000;11843.0100
3897.0000;11826.0600
3898.0000;11806.5700
3899.0000;11789.2100
3900.0000;11775.3500
3901.0000;11743.8700
3902.0000;11714.5100
3903.0000;11724.4700
3904.0000;11727.5600
3905.0000;11717.2900
3906.0000;11736.6500
3907.0000;11734.0800
3908.0000;11698.8700
3909.0000;11693.0600
3910.0000;11699.0600
3911.0000;11698.5900
3912.0000;11688.6200
3913.0000;11684.5100
3914.0000;11696.1500
3915.0000;11667.4700
3916.0000;11650.8800
3917.0000;11711.7800
3918.0000;11724.6600
3919.0000;11704.5000
3920.0000;11737.4800
3921.0000;11731.3900
3922.0000;11693.1600
3923.0000;11696.5800
3924.0000;11700.2600
3925.0000;11692.1300
3926.0000;11688.6900
3927.0000;11660.4300
3928.0000;11617.8000
3929.0000;11628.0800
3930.0000;11633.9800
3931.0000;11600.0000
3932.0000;11583.2300
3933.0000;11574.4500
3934.0000;11562.3400
3935.0000;11560.1600
3936.0000;11567.2300
3937.0000;11573.8800
3938.0000;11560.8800
3939.0000;11542.5300
3940.0000;11542.1500
3941.0000;11515.9500
3942.0000;11485.2800
3943.0000;11488.7100
3944.0000;11466.7400
3945.0000;11431.4700
3946.0000;11428.3500
3947.0000;11442.1500
3948.0000;11466.0300
3949.0000;11500.1900
3950.0000;11480.5000
3951.0000;11418.3800
3952.0000;11422.4300
3953.0000;11401.4000
3954.0000;11340.7000
3955.0000;11335.5000
3956.0000;11341.1000
3957.0000;11325.1200
3958.0000;11299.6300
3959.0000;11269.3400
3960.0000;11246.6400
3961.0000;11249.8000
3962.0000;11238.7600
3963.0000;11189.3300
3964.0000;11180.7400
3965.0000;11175.7200
3966.0000;11132.8200
3967.0000;11095.7900
3968.0000;11066.4600
3969.0000;11038.0000
3970.0000;11002.3300
3971.0000;10981.7100
3972.0000;10990.8200
3973.0000;11006.6400
3974.0000;11009.2900
3975.0000;10984.1900
3976.0000;10967.4300
3977.0000;10971.4900
3978.0000;10991.1300
3979.0000;11010.1900
3980.0000;11011.6800
3981.0000;10988.3900
3982.0000;10973.5200
3983.0000;10978.6600
3984.0000;10993.7200
3985.0000;10982.3800
3986.0000;10947.8400
3987.0000;10925.5600
3988.0000;10914.0500
3989.0000;10909.1800
3990.0000;10892.7200
3991.0000;10883.9900
3992.0000;10882.6600
3993.0000;10869.9000
3994.0000;10848.4300
3995.0000;10828.5800
3996.0000;10822.1100
3997.0000;10848.7900
3998.0000;10892.6000
3999.0000;10903.0400
4000.0000;10903.1900
4001.0000;10906.6000
4002.0000;10922.6900
4003.0000;10914.6400
4004.0000;10885.0500
4005.0000;10884.8400
4006.0000;10881.3400
4007.0000;10867.6400
4008.0000;10868.5500
4009.0000;10868.6900
4010.0000;10863.8700
4011.0000;10872.2100
4012.0000;10829.6900
4013.0000;10750.5100
4014.0000;10740.6300
4015.0000;10754.0400
4016.0000;10756.8300
4017.0000;10737.4200
4018.0000;10729.7600
4019.0000;10743.4300
4020.0000;10749.1900
4021.0000;10737.9800
4022.0000;10711.5600
4023.0000;10681.3000
4024.0000;10683.8000
4025.0000;10704.7400
4026.0000;10661.7100
4027.0000;10625.1200
4028.0000;10615.3100
4029.0000;10582.6100
4030.0000;10550.5600
4031.0000;10534.2800
4032.0000;10536.5100
4033.0000;10519.0500
4034.0000;10481.1300
4035.0000;10458.5400
4036.0000;10453.9400
4037.0000;10458.8300
4038.0000;10447.8700
4039.0000;10429.8300
4040.0000;10409.6500
4041.0000;10388.7600
4042.0000;10365.9400
4043.0000;10354.0300
4044.0000;10366.5700
4045.0000;10365.2600
4046.0000;10362.3500
4047.0000;10397.8400
4048.0000;10413.6800
4049.0000;10401.8300
4050.0000;10386.0400
4051.0000;10385.1900
4052.0000;10392.7500
4053.0000;10386.5900
4054.0000;10361.3200
4055.0000;10346.5000
4056.0000;10371.9900
4057.0000;10379.1300
4058.0000;10375.3200
4059.0000;10381.4400
4060.0000;10384.3500
4061.0000;10381.4300
4062.0000;10373.9200
4063.0000;10367.1000
4064.0000;10356.9800
4065.0000;10341.4400
4066.0000;10318.8000
4067.0000;10314.7400
4068.0000;10331.9900
4069.0000;10309.7500
4070.0000;10278.8800
4071.0000;10266.4300
4072.0000;10265.1400
4073.0000;10274.0200
4074.0000;10271.9200
4075.0000;10220.6600
4076.0000;10173.4600
4077.0000;10148.4400
4078.0000;10097.6800
4079.0000;10060.8000
4080.0000;10049.9200
4081.0000;10041.5400
4082.0000;10005.9900
4083.0000;9966.7730
4084.0000;9974.5620
4085.0000;9965.0080
4086.0000;9931.1780
4087.0000;9893.2210
4088.0000;9889.8330
4089.0000;9900.2170
4090.0000;9885.0250
4091.0000;9874.6110
4092.0000;9887.8140
4093.0000;9923.3410
4094.0000;9922.1940
4095.0000;9934.9780
4096.0000;9979.1260
4097.0000;9946.8250
4098.0000;9903.7730
4099.0000;9891.3300
4100.0000;9846.4950
4101.0000;9837.0360
4102.0000;9857.3250
4103.0000;9816.8410
4104.0000;9769.8250
4105.0000;9728.2260
4106.0000;9669.4560
4107.0000;9596.9860
4108.0000;9518.5230
4109.0000;9436.1500
4110.0000;9357.0850
4111.0000;9292.7310
4112.0000;9235.9400
4113.0000;9128.6440
4114.0000;9020.1230
4115.0000;8951.1260
4116.0000;8835.5500
4117.0000;8735.6140
4118.0000;8668.6000
4119.0000;8544.1550
4120.0000;8445.4610
4121.0000;8380.4710
4122.0000;8268.5560
4123.0000;8127.8110
4124.0000;7993.2420
4125.0000;7885.8120
4126.0000;7760.1630
4127.0000;7634.3930
4128.0000;7525.1040
4129.0000;7411.5710
4130.0000;7285.9070
4131.0000;7142.0370
4132.0000;7025.2340
4133.0000;6923.5270
4134.0000;6810.1420
4135.0000;6666.3820
4136.0000;6541.3750
4137.0000;6445.8790
4138.0000;6323.6000
4139.0000;6215.3150
4140.0000;6118.7590
4141.0000;5992.0640
4142.0000;5870.9220
4143.0000;5754.1400
4144.0000;5622.9020
4145.0000;5524.5560
4146.0000;5450.9490
4147.0000;5375.8260
4148.0000;5308.5620
4149.0000;5245.4320
4150.0000;5180.0100
4151.0000;5107.4610
4152.0000;5036.2070
4153.0000;4979.1140
4154.0000;4933.9800
4155.0000;4898.4840
4156.0000;4863.7030
4157.0000;4816.1380
4158.0000;4768.9170
4159.0000;4721.6380
4160.0000;4671.7870
4161.0000;4629.1190
4162.0000;4574.9100
4163.0000;4510.9960
4164.0000;4471.8310
4165.0000;4439.6890
4166.0000;4412.1050
4167.0000;4389.5780
4168.0000;4379.1210
4169.0000;4367.2870
4170.0000;4340.4410
4171.0000;4339.0160
4172.0000;4334.0170
4173.0000;4310.2440
4174.0000;4324.2770
4175.0000;4321.6500
4176.0000;4291.0960
4177.0000;4280.3510
4178.0000;4262.7210
4179.0000;4236.3570
4180.0000;4210.1080
4181.0000;4200.8650
4182.0000;4193.8110
4183.0000;4174.3300
4184.0000;4175.5100
4185.0000;4177.2820
4186.0000;4171.4600
4187.0000;4177.8710
4188.0000;4184.3340
4189.0000;4192.9430
4190.0000;4211.3190
4191.0000;4210.5890
4192.0000;4204.5360
4193.0000;4213.5840
4194.0000;4216.7500
4195.0000;4208.9690
4196.0000;4190.9210
4197.0000;4168.9700
4198.0000;4144.3430
4199.0000;4126.4720
4200.0000;4121.1200
4201.0000;4103.2740
4202.0000;4092.7820
4203.0000;4105.1160
4204.0000;4105.5870
4205.0000;4112.8130
4206.0000;4125.8920
4207.0000;4115.1100
4208.0000;4118.3940
4209.0000;4129.9080
4210.0000;4121.0930
4211.0000;4104.7340
4212.0000;4097.6730
4213.0000;4108.4050
4214.0000;4118.2080
4215.0000;4112.6350
4216.0000;4086.5580
4217.0000;4048.7110
4218.0000;4034.0400
4219.0000;4038.2620
4220.0000;4032.7130
4221.0000;4009.4230
4222.0000;4014.5920
4223.0000;4055.4570
4224.0000;4047.6150
4225.0000;4018.9510
4226.0000;4002.1700
4227.0000;4019.1070
4228.0000;4006.8590
4229.0000;3986.0840
4230.0000;3988.4350
4231.0000;3986.2440
4232.0000;4001.7940
4233.0000;4026.7330
4234.0000;4023.9320
4235.0000;4012.4000
4236.0000;3607.2250
4237.0000;2551.7910
4238.0000;1345.1200
